File: old/ueberstruktur/Auswertung/roentgenografische methode daten/probe1.UXD
; C:\Data\Froehlich\Praktikum\2016-02-09_ignatiev\probe1.raw(Diffrac Plus V1.01 file) converted by XCH V1.0
_FILEVERSION=2
_SAMPLE='Probe1'
_SITE='II. Physikalisches Institut'
_ATTACHMENTS_CODE=0
_GONIOMETER_RADIUS=200.5
_FIXED_DIVSLIT=2.000000
_FIXED_SAMPLESLIT=1.000000
_FIXED_DETSLIT=0.200000
_MONOCHROMATOR=0
; None
_THIN_FILM='N'
_BETA_FILTER='Y'
_FIXED_ANTISLIT=2.000000
_ANALYZER_CODE=0
; None
_DATEMEASURED='09-Feb-2016 18:08:43'
_WL_UNIT='A'
_WL1=1.540590
_WL2=1.544430
_WL3=1.392230
_WLRATIO=0.520000
_ANODE='Cu'
; (Data for Range number 1)
_DRIVE='COUPLED'
_STEPTIME=2.000000
_STEPSIZE=0.022000
_STEPMODE='C'
_START=12
_THETA=6.000000
_2THETA=12
_KHI=0.000000
_PHI=0.000000
_X=0.000000
_Y=0.000000
_Z=0.000000
_DIVERGENCE=0.000000
_ANTISCATTER=0.000000
_DETECTOR=1
; S.C.
_HV=1000
_GAIN=80
_LLD=0.550000
_ULD=1.310000
_DETECTORSLIT='unkn'
_AUX1=0.000000
_AUX2=0.000000
_AUX3=0.000000
_TIMESTARTED=18
_ROTATION_SPEED=120
_TEMP_RATE=-1.000000
_TEMP_DELAY=-1.000000
_KV=40
_MA=40
_RANGE_WL=1.540590
_3DPLANE=0
_2THETACOUNTS
  12.0000       302
  12.0880       315
  12.1760       291
  12.2640       315
  12.3520       326
  12.4400       289
  12.5280       285
  12.6160       296
  12.7040       285
  12.7920       320
  12.8800       293
  12.9680       310
  13.0560       276
  13.1440       281
  13.2320       279
  13.3200       279
  13.4080       281
  13.4960       268
  13.5840       310
  13.6720       279
  13.7600       320
  13.8480       313
  13.9360       309
  14.0240       305
  14.1120       286
  14.2000       307
  14.2880       288
  14.3760       290
  14.4640       303
  14.5520       295
  14.6400       302
  14.7280       267
  14.8160       286
  14.9040       305
  14.9920       280
  15.0800       268
  15.1680       298
  15.2560       317
  15.3440       307
  15.4320       245
  15.5200       290
  15.6080       307
  15.6960       291
  15.7840       327
  15.8720       308
  15.9600       313
  16.0480       268
  16.1360       308
  16.2240       315
  16.3120       319
  16.4000       314
  16.4880       304
  16.5760       333
  16.6640       321
  16.7520       331
  16.8400       328
  16.9280       337
  17.0160       305
  17.1040       333
  17.1920       347
  17.2800       333
  17.3680       325
  17.4560       342
  17.5440       303
  17.6320       361
  17.7200       333
  17.8080       309
  17.8960       305
  17.9840       324
  18.0720       349
  18.1600       327
  18.2480       310
  18.3360       333
  18.4240       332
  18.5120       335
  18.6000       402
  18.6880       356
  18.7760       363
  18.8640       347
  18.9520       352
  19.0400       347
  19.1280       363
  19.2160       402
  19.3040       373
  19.3920       372
  19.4800       377
  19.5680       392
  19.6560       373
  19.7440       377
  19.8320       382
  19.9200       392
  20.0080       349
  20.0960       380
  20.1840       424
  20.2720       383
  20.3600       360
  20.4480       374
  20.5360       413
  20.6240       405
  20.7120       392
  20.8000       421
  20.8880       411
  20.9760       423
  21.0640       424
  21.1520       395
  21.2400       394
  21.3280       412
  21.4160       455
  21.5040       437
  21.5920       381
  21.6800       409
  21.7680       434
  21.8560       447
  21.9440       406
  22.0320       427
  22.1200       427
  22.2080       443
  22.2960       420
  22.3840       427
  22.4720       447
  22.5600       454
  22.6480       434
  22.7360       443
  22.8240       432
  22.9120       421
  23.0000       481
  23.0880       480
  23.1760       446
  23.2640       445
  23.3520       451
  23.4400       460
  23.5280       447
  23.6160       432
  23.7040       455
  23.7920       463
  23.8800       465
  23.9680       460
  24.0560       451
  24.1440       480
  24.2320       498
  24.3200       472
  24.4080       432
  24.4960       447
  24.5840       451
  24.6720       438
  24.7600       445
  24.8480       462
  24.9360       458
  25.0240       454
  25.1120       474
  25.2000       449
  25.2880       432
  25.3760       443
  25.4640       431
  25.5520       447
  25.6400       440
  25.7280       433
  25.8160       435
  25.9040       456
  25.9920       428
  26.0800       439
  26.1680       430
  26.2560       488
  26.3440       479
  26.4320       446
  26.5200       436
  26.6080       464
  26.6960       459
  26.7840       443
  26.8720       443
  26.9600       460
  27.0480       477
  27.1360       479
  27.2240       445
  27.3120       476
  27.4000       462
  27.4880       443
  27.5760       446
  27.6640       416
  27.7520       462
  27.8400       421
  27.9280       435
  28.0160       455
  28.1040       448
  28.1920       456
  28.2800       462
  28.3680       479
  28.4560       384
  28.5440       453
  28.6320       486
  28.7200       423
  28.8080       437
  28.8960       498
  28.9840       468
  29.0720       426
  29.1600       430
  29.2480       476
  29.3360       457
  29.4240       480
  29.5120       430
  29.6000       458
  29.6880       465
  29.7760       410
  29.8640       408
  29.9520       407
  30.0400       377
  30.1280       434
  30.2160       437
  30.3040       449
  30.3920       427
  30.4800       408
  30.5680       443
  30.6560       438
  30.7440       414
  30.8320       390
  30.9200       427
  31.0080       435
  31.0960       473
  31.1840       423
  31.2720       451
  31.3600       441
  31.4480       405
  31.5360       458
  31.6240       472
  31.7120       442
  31.8000       414
  31.8880       434
  31.9760       449
  32.0640       378
  32.1520       399
  32.2400       412
  32.3280       422
  32.4160       399
  32.5040       358
  32.5920       424
  32.6800       423
  32.7680       423
  32.8560       424
  32.9440       435
  33.0320       399
  33.1200       402
  33.2080       425
  33.2960       396
  33.3840       423
  33.4720       410
  33.5600       403
  33.6480       405
  33.7360       416
  33.8240       384
  33.9120       404
  34.0000       429
  34.0880       361
  34.1760       410
  34.2640       422
  34.3520       416
  34.4400       449
  34.5280       384
  34.6160       398
  34.7040       390
  34.7920       425
  34.8800       414
  34.9680       404
  35.0560       416
  35.1440       424
  35.2320       357
  35.3200       384
  35.4080       374
  35.4960       390
  35.5840       365
  35.6720       373
  35.7600       405
  35.8480       385
  35.9360       385
  36.0240       377
  36.1120       387
  36.2000       381
  36.2880       401
  36.3760       409
  36.4640       394
  36.5520       388
  36.6400       404
  36.7280       376
  36.8160       371
  36.9040       369
  36.9920       396
  37.0800       389
  37.1680       325
  37.2560       402
  37.3440       381
  37.4320       440
  37.5200       373
  37.6080       411
  37.6960       410
  37.7840       444
  37.8720       391
  37.9600       401
  38.0480       355
  38.1360       457
  38.2240       452
  38.3120       486
  38.4000       484
  38.4880       454
  38.5760       415
  38.6640       413
  38.7520       419
  38.8400       410
  38.9280       383
  39.0160       416
  39.1040       389
  39.1920       380
  39.2800       389
  39.3680       363
  39.4560       411
  39.5440       381
  39.6320       374
  39.7200       422
  39.8080       395
  39.8960       378
  39.9840       447
  40.0720       429
  40.1600       395
  40.2480       421
  40.3360       414
  40.4240       429
  40.5120       424
  40.6000       458
  40.6880       423
  40.7760       443
  40.8640       430
  40.9520       434
  41.0400       506
  41.1280       469
  41.2160       508
  41.3040       600
  41.3920       642
  41.4800       834
  41.5680      1107
  41.6560      1622
  41.7440      2527
  41.8320      3731
  41.9200      3923
  42.0080      3242
  42.0960      1974
  42.1840      1231
  42.2720       886
  42.3600       675
  42.4480       543
  42.5360       511
  42.6240       509
  42.7120       478
  42.8000       428
  42.8880       474
  42.9760       433
  43.0640       435
  43.1520       415
  43.2400       408
  43.3280       438
  43.4160       373
  43.5040       417
  43.5920       435
  43.6800       423
  43.7680       448
  43.8560       438
  43.9440       425
  44.0320       473
  44.1200       423
  44.2080       431
  44.2960       395
  44.3840       409
  44.4720       395
  44.5600       403
  44.6480       435
  44.7360       406
  44.8240       396
  44.9120       391
  45.0000       387
  45.0880       398
  45.1760       405
  45.2640       409
  45.3520       388
  45.4400       374
  45.5280       406
  45.6160       382
  45.7040       381
  45.7920       419
  45.8800       392
  45.9680       421
  46.0560       415
  46.1440       373
  46.2320       411
  46.3200       417
  46.4080       417
  46.4960       398
  46.5840       427
  46.6720       387
  46.7600       428
  46.8480       420
  46.9360       440
  47.0240       401
  47.1120       425
  47.2000       401
  47.2880       434
  47.3760       451
  47.4640       443
  47.5520       473
  47.6400       446
  47.7280       453
  47.8160       519
  47.9040       536
  47.9920       590
  48.0800       695
  48.1680       822
  48.2560      1028
  48.3440      1214
  48.4320      1653
  48.5200      1999
  48.6080      2440
  48.6960      2523
  48.7840      2300
  48.8720      1791
  48.9600      1324
  49.0480       961
  49.1360       788
  49.2240       643
  49.3120       570
  49.4000       565
  49.4880       476
  49.5760       459
  49.6640       449
  49.7520       405
  49.8400       426
  49.9280       394
  50.0160       426
  50.1040       403
  50.1920       416
  50.2800       392
  50.3680       455
  50.4560       384
  50.5440       393
  50.6320       393
  50.7200       404
  50.8080       382
  50.8960       440
  50.9840       423
  51.0720       416
  51.1600       423
  51.2480       370
  51.3360       394
  51.4240       389
  51.5120       461
  51.6000       398
  51.6880       387
  51.7760       406
  51.8640       386
  51.9520       423
  52.0400       402
  52.1280       397
  52.2160       428
  52.3040       386
  52.3920       396
  52.4800       361
  52.5680       363
  52.6560       384
  52.7440       415
  52.8320       401
  52.9200       411
  53.0080       402
  53.0960       405
  53.1840       418
  53.2720       401
  53.3600       411
  53.4480       393
  53.5360       373
  53.6240       381
  53.7120       448
  53.8000       404
  53.8880       432
  53.9760       373
  54.0640       435
  54.1520       390
  54.2400       425
  54.3280       430
  54.4160       398
  54.5040       413
  54.5920       389
  54.6800       418
  54.7680       383
  54.8560       404
  54.9440       400
  55.0320       393
  55.1200       394
  55.2080       400
  55.2960       379
  55.3840       396
  55.4720       404
  55.5600       402
  55.6480       377
  55.7360       402
  55.8240       385
  55.9120       411
  56.0000       423
  56.0880       420
  56.1760       377
  56.2640       415
  56.3520       429
  56.4400       400
  56.5280       411
  56.6160       440
  56.7040       437
  56.7920       385
  56.8800       399
  56.9680       427
  57.0560       414
  57.1440       399
  57.2320       388
  57.3200       431
  57.4080       398
  57.4960       414
  57.5840       387
  57.6720       376
  57.7600       437
  57.8480       427
  57.9360       387
  58.0240       421
  58.1120       409
  58.2000       390
  58.2880       410
  58.3760       396
  58.4640       427
  58.5520       399
  58.6400       404
  58.7280       399
  58.8160       413
  58.9040       402
  58.9920       400
  59.0800       420
  59.1680       437
  59.2560       373
  59.3440       396
  59.4320       358
  59.5200       423
  59.6080       422
  59.6960       416
  59.7840       429
  59.8720       420
  59.9600       413
  60.0480       378
  60.1360       424
  60.2240       416
  60.3120       400
  60.4000       358
  60.4880       396
  60.5760       357
  60.6640       409
  60.7520       387
  60.8400       401
  60.9280       445
  61.0160       394
  61.1040       394
  61.1920       422
  61.2800       410
  61.3680       429
  61.4560       418
  61.5440       400
  61.6320       411
  61.7200       412
  61.8080       453
  61.8960       427
  61.9840       373
  62.0720       414
  62.1600       393
  62.2480       448
  62.3360       432
  62.4240       420
  62.5120       395
  62.6000       391
  62.6880       378
  62.7760       419
  62.8640       407
  62.9520       415
  63.0400       418
  63.1280       463
  63.2160       397
  63.3040       392
  63.3920       420
  63.4800       397
  63.5680       408
  63.6560       426
  63.7440       415
  63.8320       401
  63.9200       429
  64.0080       397
  64.0960       418
  64.1840       445
  64.2720       381
  64.3600       427
  64.4480       435
  64.5360       455
  64.6240       476
  64.7120       419
  64.8000       438
  64.8880       454
  64.9760       410
  65.0640       401
  65.1520       454
  65.2400       381
  65.3280       404
  65.4160       413
  65.5040       420
  65.5920       435
  65.6800       397
  65.7680       419
  65.8560       369
  65.9440       398
  66.0320       399
  66.1200       451
  66.2080       422
  66.2960       434
  66.3840       398
  66.4720       405
  66.5600       443
  66.6480       388
  66.7360       393
  66.8240       421
  66.9120       407
  67.0000       404
  67.0880       423
  67.1760       393
  67.2640       424
  67.3520       401
  67.4400       418
  67.5280       432
  67.6160       462
  67.7040       427
  67.7920       441
  67.8800       401
  67.9680       403
  68.0560       423
  68.1440       430
  68.2320       376
  68.3200       460
  68.4080       390
  68.4960       440
  68.5840       445
  68.6720       384
  68.7600       407
  68.8480       428
  68.9360       454
  69.0240       448
  69.1120       377
  69.2000       465
  69.2880       418
  69.3760       465
  69.4640       402
  69.5520       439
  69.6400       424
  69.7280       402
  69.8160       407
  69.9040       435
  69.9920       438
  70.0800       462
  70.1680       465
  70.2560       458
  70.3440       473
  70.4320       475
  70.5200       490
  70.6080       515
  70.6960       493
  70.7840       547
  70.8720       609
  70.9600       714
  71.0480       886
  71.1360       935
  71.2240      1100
  71.3120      1095
  71.4000      1008
  71.4880       845
  71.5760       728
  71.6640       584
  71.7520       529
  71.8400       483
  71.9280       480
  72.0160       466
  72.1040       477
  72.1920       464
  72.2800       442
  72.3680       458
  72.4560       418
  72.5440       463
  72.6320       462
  72.7200       418
  72.8080       423
  72.8960       422
  72.9840       437
  73.0720       407
  73.1600       450
  73.2480       454
  73.3360       391
  73.4240       419
  73.5120       433
  73.6000       413
  73.6880       390
  73.7760       428
  73.8640       439
  73.9520       420
  74.0400       374
  74.1280       430
  74.2160       464
  74.3040       435
  74.3920       418
  74.4800       432
  74.5680       418
  74.6560       464
  74.7440       411
  74.8320       414
  74.9200       400
  75.0080       422
  75.0960       446
  75.1840       415
  75.2720       393
  75.3600       409
  75.4480       453
  75.5360       423
  75.6240       417
  75.7120       408
  75.8000       427
  75.8880       422
  75.9760       420
  76.0640       492
  76.1520       403
  76.2400       446
  76.3280       435
  76.4160       436
  76.5040       407
  76.5920       441
  76.6800       450
  76.7680       427
  76.8560       424
  76.9440       432
  77.0320       462
  77.1200       428
  77.2080       443
  77.2960       452
  77.3840       446
  77.4720       432
  77.5600       413
  77.6480       430
  77.7360       435
  77.8240       421
  77.9120       434
  78.0000       420
  78.0880       395
  78.1760       427
  78.2640       417
  78.3520       412
  78.4400       401
  78.5280       466
  78.6160       411
  78.7040       463
  78.7920       420
  78.8800       446
  78.9680       442
  79.0560       418
  79.1440       424
  79.2320       422
  79.3200       430
  79.4080       399
  79.4960       416
  79.5840       416
  79.6720       395
  79.7600       407
  79.8480       465
  79.9360       472
  80.0240       451
  80.1120       394
  80.2000       410
  80.2880       422
  80.3760       447
  80.4640       408
  80.5520       435
  80.6400       402
  80.7280       417
  80.8160       420
  80.9040       409
  80.9920       410
  81.0800       431
  81.1680       442
  81.2560       420
  81.3440       425
  81.4320       410
  81.5200       436
  81.6080       426
  81.6960       450
  81.7840       427
  81.8720       447
  81.9600       450
  82.0480       411
  82.1360       426
  82.2240       440
  82.3120       448
  82.4000       457
  82.4880       434
  82.5760       422
  82.6640       429
  82.7520       433
  82.8400       400
  82.9280       387
  83.0160       432
  83.1040       408
  83.1920       448
  83.2800       427
  83.3680       441
  83.4560       435
  83.5440       447
  83.6320       411
  83.7200       400
  83.8080       446
  83.8960       440
  83.9840       416
  84.0720       415
  84.1600       436
  84.2480       429
  84.3360       475
  84.4240       452
  84.5120       434
  84.6000       447
  84.6880       452
  84.7760       480
  84.8640       486
  84.9520       488
  85.0400       508
  85.1280       535
  85.2160       544
  85.3040       548
  85.3920       622
  85.4800       634
  85.5680       731
  85.6560       700
  85.7440       814
  85.8320       926
  85.9200      1028
  86.0080      1071
  86.0960      1028
  86.1840      1056
  86.2720       935
  86.3600       862
  86.4480       772
  86.5360       673
  86.6240       587
  86.7120       585
  86.8000       535
  86.8880       516
  86.9760       465
  87.0640       454
  87.1520       493
  87.2400       443
  87.3280       426
  87.4160       459
  87.5040       405
  87.5920       417
  87.6800       484
  87.7680       463
  87.8560       445
  87.9440       443
  88.0320       436
  88.1200       435
  88.2080       430
  88.2960       469
  88.3840       455
  88.4720       438
  88.5600       425
  88.6480       440
  88.7360       387
  88.8240       430
  88.9120       403
  89.0000       429
  89.0880       416
  89.1760       398
  89.2640       440
  89.3520       456
  89.4400       449
  89.5280       491
  89.6160       437
  89.7040       424
  89.7920       404
  89.8800       407
  89.9680       440
  90.0560       458
  90.1440       473
  90.2320       474
  90.3200       446
  90.4080       474
  90.4960       523
  90.5840       497
  90.6720       513
  90.7600       583
  90.8480       590
  90.9360       624
  91.0240       584
  91.1120       543
  91.2000       550
  91.2880       552
  91.3760       490
  91.4640       465
  91.5520       456
  91.6400       437
  91.7280       455
  91.8160       437
  91.9040       427
  91.9920       459
  92.0800       437
  92.1680       412
  92.2560       427
  92.3440       454
  92.4320       383
  92.5200       422
  92.6080       427
  92.6960       452
  92.7840       418
  92.8720       436
  92.9600       401
  93.0480       415
  93.1360       438
  93.2240       409
  93.3120       442
  93.4000       446
  93.4880       443
  93.5760       402
  93.6640       420
  93.7520       396
  93.8400       434
  93.9280       456
  94.0160       406
  94.1040       453
  94.1920       419
  94.2800       413
  94.3680       417
  94.4560       432
  94.5440       447
  94.6320       405
  94.7200       445
  94.8080       415
  94.8960       423
  94.9840       395
  95.0720       443
  95.1600       445
  95.2480       428
  95.3360       420
  95.4240       405
  95.5120       422
  95.6000       458
  95.6880       437
  95.7760       393
  95.8640       396
  95.9520       403
  96.0400       453
  96.1280       411
  96.2160       407
  96.3040       436
  96.3920       404
  96.4800       432
  96.5680       429
  96.6560       389
  96.7440       432
  96.8320       417
  96.9200       493
  97.0080       413
  97.0960       438
  97.1840       414
  97.2720       476
  97.3600       402
  97.4480       409
  97.5360       431
  97.6240       399
  97.7120       429
  97.8000       421
  97.8880       431
  97.9760       420
  98.0640       431
  98.1520       444
  98.2400       369
  98.3280       431
  98.4160       444
  98.5040       391
  98.5920       384
  98.6800       431
  98.7680       436
  98.8560       411
  98.9440       439
  99.0320       429
  99.1200       416
  99.2080       413
  99.2960       436
  99.3840       466
  99.4720       417
  99.5600       419
  99.6480       413
  99.7360       437
  99.8240       448
  99.9120       468
 100.0000       433
 100.0880       428
 100.1760       435
 100.2640       430
 100.3520       413
 100.4400       413
 100.5280       419
 100.6160       429
 100.7040       420
 100.7920       440
 100.8800       413
 100.9680       421
 101.0560       443
 101.1440       422
 101.2320       421
 101.3200       422
 101.4080       437
 101.4960       473
 101.5840       432
 101.6720       419
 101.7600       446
 101.8480       414
 101.9360       440
 102.0240       445
 102.1120       444
 102.2000       451
 102.2880       452
 102.3760       455
 102.4640       453
 102.5520       445
 102.6400       444
 102.7280       435
 102.8160       431
 102.9040       453
 102.9920       391
 103.0800       370
 103.1680       445
 103.2560       407
 103.3440       430
 103.4320       425
 103.5200       433
 103.6080       440
 103.6960       419
 103.7840       445
 103.8720       437
 103.9600       408
 104.0480       421
 104.1360       448
 104.2240       410
 104.3120       407
 104.4000       415
 104.4880       434
 104.5760       437
 104.6640       451
 104.7520       468
 104.8400       404
 104.9280       432
 105.0160       466
 105.1040       411
 105.1920       423
 105.2800       414
 105.3680       433
 105.4560       427
 105.5440       468
 105.6320       446
 105.7200       450
 105.8080       438
 105.8960       447
 105.9840       441
 106.0720       465
 106.1600       404
 106.2480       461
 106.3360       462
 106.4240       428
 106.5120       421
 106.6000       458
 106.6880       434
 106.7760       438
 106.8640       426
 106.9520       461
 107.0400       439
 107.1280       461
 107.2160       430
 107.3040       432
 107.3920       426
 107.4800       438
 107.5680       438
 107.6560       451
 107.7440       405
 107.8320       479
 107.9200       470
 108.0080       460
 108.0960       458
 108.1840       403
 108.2720       448
 108.3600       419
 108.4480       420
 108.5360       441
 108.6240       426
 108.7120       471
 108.8000       419
 108.8880       447
 108.9760       417
 109.0640       454
 109.1520       469
 109.2400       469
 109.3280       479
 109.4160       448
 109.5040       455
 109.5920       503
 109.6800       434
 109.7680       470
 109.8560       472
 109.9440       504
 110.0320       537
 110.1200       538
 110.2080       555
 110.2960       529
 110.3840       584
 110.4720       573
 110.5600       540
 110.6480       552
 110.7360       535
 110.8240       522
 110.9120       531
 111.0000       518
 111.0880       508
 111.1760       515
 111.2640       512
 111.3520       520
 111.4400       503
 111.5280       420
 111.6160       430
 111.7040       496
 111.7920       452
 111.8800       490
 111.9680       481
 112.0560       427
 112.1440       423
 112.2320       436
 112.3200       508
 112.4080       451
 112.4960       496
 112.5840       476
 112.6720       453
 112.7600       476
 112.8480       458
 112.9360       475
 113.0240       439
 113.1120       460
 113.2000       415
 113.2880       422
 113.3760       473
 113.4640       423
 113.5520       438
 113.6400       455
 113.7280       437
 113.8160       472
 113.9040       474
 113.9920       462
 114.0800       424
 114.1680       424
 114.2560       456
 114.3440       464
 114.4320       453
 114.5200       434
 114.6080       445
 114.6960       415
 114.7840       477
 114.8720       462
 114.9600       440
 115.0480       437
 115.1360       396
 115.2240       467
 115.3120       406
 115.4000       441
 115.4880       457
 115.5760       505
 115.6640       454
 115.7520       457
 115.8400       438
 115.9280       421
 116.0160       430
 116.1040       429
 116.1920       450
 116.2800       425
 116.3680       445
 116.4560       443
 116.5440       420
 116.6320       432
 116.7200       452
 116.8080       424
 116.8960       459
 116.9840       468
 117.0720       433
 117.1600       451
 117.2480       469
 117.3360       431
 117.4240       445
 117.5120       459
 117.6000       461
 117.6880       454
 117.7760       491
 117.8640       485
 117.9520       443
 118.0400       471
 118.1280       431
 118.2160       442
 118.3040       457
 118.3920       437
 118.4800       464
 118.5680       445
 118.6560       474
 118.7440       477
 118.8320       450
 118.9200       448
 119.0080       455
 119.0960       473
 119.1840       446
 119.2720       462
 119.3600       455
 119.4480       400
 119.5360       452
 119.6240       449
 119.7120       445
 119.8000       480
 119.8880       452
 119.9760       445
 120.0640       468
 120.1520       446
 120.2400       461
 120.3280       455
 120.4160       479
 120.5040       460
 120.5920       469
 120.6800       460
 120.7680       446
 120.8560       472
 120.9440       474
 121.0320       451
 121.1200       450
 121.2080       467
 121.2960       454
 121.3840       468
 121.4720       469
 121.5600       462
 121.6480       467
 121.7360       441
 121.8240       496
 121.9120       461
 122.0000       465