File: old/ueberstruktur/Auswertung/roentgenografische methode daten/probe3.UXD
; C:\Data\Froehlich\Praktikum\2016-02-09_ignatiev\probe3.raw(Diffrac Plus V1.01 file) converted by XCH V1.0
_FILEVERSION=2
_SAMPLE='Probe3'
_SITE='II. Physikalisches Institut'
_ATTACHMENTS_CODE=0
_GONIOMETER_RADIUS=200.5
_FIXED_DIVSLIT=2.000000
_FIXED_SAMPLESLIT=1.000000
_FIXED_DETSLIT=0.200000
_MONOCHROMATOR=0
; None
_THIN_FILM='N'
_BETA_FILTER='Y'
_FIXED_ANTISLIT=2.000000
_ANALYZER_CODE=0
; None
_DATEMEASURED='09-Feb-2016 23:43:25'
_WL_UNIT='A'
_WL1=1.540590
_WL2=1.544430
_WL3=1.392230
_WLRATIO=0.520000
_ANODE='Cu'
; (Data for Range number 1)
_DRIVE='COUPLED'
_STEPTIME=2.000000
_STEPSIZE=0.022000
_STEPMODE='C'
_START=12
_THETA=6.000000
_2THETA=12
_KHI=0.000000
_PHI=0.000000
_X=0.000000
_Y=0.000000
_Z=0.000000
_DIVERGENCE=0.000000
_ANTISCATTER=0.000000
_DETECTOR=1
; S.C.
_HV=1000
_GAIN=80
_LLD=0.550000
_ULD=1.310000
_DETECTORSLIT='unkn'
_AUX1=0.000000
_AUX2=0.000000
_AUX3=0.000000
_TIMESTARTED=13
_ROTATION_SPEED=120
_TEMP_RATE=-1.000000
_TEMP_DELAY=-1.000000
_KV=40
_MA=40
_RANGE_WL=1.540590
_3DPLANE=0
_2THETACOUNTS
  12.0000       216
  12.0880       235
  12.1760       246
  12.2640       276
  12.3520       270
  12.4400       245
  12.5280       244
  12.6160       283
  12.7040       254
  12.7920       231
  12.8800       254
  12.9680       257
  13.0560       205
  13.1440       244
  13.2320       258
  13.3200       247
  13.4080       251
  13.4960       248
  13.5840       271
  13.6720       250
  13.7600       244
  13.8480       255
  13.9360       266
  14.0240       244
  14.1120       228
  14.2000       261
  14.2880       255
  14.3760       281
  14.4640       264
  14.5520       269
  14.6400       274
  14.7280       267
  14.8160       265
  14.9040       255
  14.9920       237
  15.0800       265
  15.1680       254
  15.2560       239
  15.3440       253
  15.4320       240
  15.5200       248
  15.6080       251
  15.6960       246
  15.7840       259
  15.8720       247
  15.9600       249
  16.0480       263
  16.1360       258
  16.2240       258
  16.3120       298
  16.4000       268
  16.4880       264
  16.5760       278
  16.6640       258
  16.7520       283
  16.8400       280
  16.9280       266
  17.0160       266
  17.1040       274
  17.1920       261
  17.2800       277
  17.3680       287
  17.4560       265
  17.5440       268
  17.6320       298
  17.7200       285
  17.8080       311
  17.8960       298
  17.9840       274
  18.0720       279
  18.1600       267
  18.2480       299
  18.3360       321
  18.4240       277
  18.5120       265
  18.6000       325
  18.6880       271
  18.7760       316
  18.8640       295
  18.9520       274
  19.0400       285
  19.1280       299
  19.2160       297
  19.3040       314
  19.3920       301
  19.4800       355
  19.5680       306
  19.6560       320
  19.7440       325
  19.8320       336
  19.9200       329
  20.0080       348
  20.0960       359
  20.1840       338
  20.2720       348
  20.3600       346
  20.4480       338
  20.5360       335
  20.6240       356
  20.7120       326
  20.8000       311
  20.8880       361
  20.9760       377
  21.0640       354
  21.1520       361
  21.2400       351
  21.3280       347
  21.4160       350
  21.5040       372
  21.5920       355
  21.6800       352
  21.7680       391
  21.8560       361
  21.9440       347
  22.0320       368
  22.1200       335
  22.2080       359
  22.2960       360
  22.3840       342
  22.4720       340
  22.5600       371
  22.6480       324
  22.7360       396
  22.8240       379
  22.9120       402
  23.0000       386
  23.0880       328
  23.1760       390
  23.2640       390
  23.3520       386
  23.4400       411
  23.5280       405
  23.6160       379
  23.7040       415
  23.7920       430
  23.8800       450
  23.9680       393
  24.0560       424
  24.1440       423
  24.2320       409
  24.3200       351
  24.4080       400
  24.4960       379
  24.5840       386
  24.6720       353
  24.7600       374
  24.8480       382
  24.9360       413
  25.0240       402
  25.1120       381
  25.2000       345
  25.2880       376
  25.3760       381
  25.4640       345
  25.5520       379
  25.6400       368
  25.7280       331
  25.8160       313
  25.9040       356
  25.9920       378
  26.0800       330
  26.1680       352
  26.2560       352
  26.3440       345
  26.4320       392
  26.5200       353
  26.6080       327
  26.6960       377
  26.7840       351
  26.8720       366
  26.9600       370
  27.0480       321
  27.1360       337
  27.2240       348
  27.3120       319
  27.4000       386
  27.4880       313
  27.5760       340
  27.6640       320
  27.7520       336
  27.8400       339
  27.9280       331
  28.0160       339
  28.1040       330
  28.1920       365
  28.2800       335
  28.3680       346
  28.4560       314
  28.5440       319
  28.6320       340
  28.7200       343
  28.8080       312
  28.8960       350
  28.9840       316
  29.0720       352
  29.1600       303
  29.2480       327
  29.3360       341
  29.4240       289
  29.5120       334
  29.6000       317
  29.6880       300
  29.7760       327
  29.8640       357
  29.9520       327
  30.0400       334
  30.1280       335
  30.2160       326
  30.3040       294
  30.3920       342
  30.4800       279
  30.5680       284
  30.6560       310
  30.7440       321
  30.8320       309
  30.9200       346
  31.0080       294
  31.0960       341
  31.1840       299
  31.2720       349
  31.3600       275
  31.4480       307
  31.5360       307
  31.6240       295
  31.7120       303
  31.8000       337
  31.8880       312
  31.9760       321
  32.0640       309
  32.1520       289
  32.2400       290
  32.3280       297
  32.4160       297
  32.5040       282
  32.5920       292
  32.6800       291
  32.7680       309
  32.8560       274
  32.9440       312
  33.0320       288
  33.1200       269
  33.2080       288
  33.2960       308
  33.3840       270
  33.4720       303
  33.5600       289
  33.6480       307
  33.7360       307
  33.8240       304
  33.9120       295
  34.0000       339
  34.0880       335
  34.1760       349
  34.2640       291
  34.3520       265
  34.4400       270
  34.5280       305
  34.6160       282
  34.7040       272
  34.7920       279
  34.8800       275
  34.9680       259
  35.0560       246
  35.1440       283
  35.2320       284
  35.3200       250
  35.4080       262
  35.4960       264
  35.5840       246
  35.6720       273
  35.7600       236
  35.8480       276
  35.9360       244
  36.0240       263
  36.1120       227
  36.2000       251
  36.2880       264
  36.3760       253
  36.4640       260
  36.5520       230
  36.6400       251
  36.7280       258
  36.8160       235
  36.9040       241
  36.9920       249
  37.0800       237
  37.1680       223
  37.2560       252
  37.3440       265
  37.4320       253
  37.5200       243
  37.6080       234
  37.6960       279
  37.7840       259
  37.8720       236
  37.9600       235
  38.0480       276
  38.1360       246
  38.2240       263
  38.3120       258
  38.4000       241
  38.4880       255
  38.5760       219
  38.6640       259
  38.7520       237
  38.8400       243
  38.9280       269
  39.0160       240
  39.1040       253
  39.1920       246
  39.2800       269
  39.3680       234
  39.4560       256
  39.5440       262
  39.6320       230
  39.7200       214
  39.8080       252
  39.8960       207
  39.9840       256
  40.0720       266
  40.1600       242
  40.2480       225
  40.3360       277
  40.4240       246
  40.5120       280
  40.6000       246
  40.6880       257
  40.7760       262
  40.8640       265
  40.9520       270
  41.0400       267
  41.1280       302
  41.2160       296
  41.3040       322
  41.3920       379
  41.4800       454
  41.5680       668
  41.6560       936
  41.7440      1182
  41.8320      1548
  41.9200      1637
  42.0080      1161
  42.0960       756
  42.1840       554
  42.2720       414
  42.3600       330
  42.4480       307
  42.5360       261
  42.6240       273
  42.7120       264
  42.8000       223
  42.8880       289
  42.9760       242
  43.0640       255
  43.1520       261
  43.2400       262
  43.3280       298
  43.4160       229
  43.5040       226
  43.5920       270
  43.6800       299
  43.7680       252
  43.8560       246
  43.9440       260
  44.0320       246
  44.1200       268
  44.2080       238
  44.2960       215
  44.3840       244
  44.4720       259
  44.5600       242
  44.6480       236
  44.7360       233
  44.8240       213
  44.9120       233
  45.0000       239
  45.0880       233
  45.1760       238
  45.2640       238
  45.3520       228
  45.4400       230
  45.5280       246
  45.6160       238
  45.7040       243
  45.7920       238
  45.8800       259
  45.9680       219
  46.0560       220
  46.1440       239
  46.2320       229
  46.3200       260
  46.4080       216
  46.4960       257
  46.5840       256
  46.6720       248
  46.7600       252
  46.8480       243
  46.9360       244
  47.0240       239
  47.1120       260
  47.2000       231
  47.2880       241
  47.3760       287
  47.4640       266
  47.5520       262
  47.6400       276
  47.7280       295
  47.8160       280
  47.9040       306
  47.9920       393
  48.0800       396
  48.1680       498
  48.2560       528
  48.3440       657
  48.4320       744
  48.5200       851
  48.6080       870
  48.6960       862
  48.7840       704
  48.8720       603
  48.9600       449
  49.0480       399
  49.1360       323
  49.2240       311
  49.3120       263
  49.4000       261
  49.4880       266
  49.5760       260
  49.6640       264
  49.7520       239
  49.8400       248
  49.9280       261
  50.0160       225
  50.1040       222
  50.1920       218
  50.2800       223
  50.3680       207
  50.4560       240
  50.5440       234
  50.6320       225
  50.7200       226
  50.8080       253
  50.8960       220
  50.9840       229
  51.0720       230
  51.1600       256
  51.2480       234
  51.3360       220
  51.4240       211
  51.5120       222
  51.6000       235
  51.6880       242
  51.7760       223
  51.8640       225
  51.9520       233
  52.0400       247
  52.1280       222
  52.2160       221
  52.3040       234
  52.3920       235
  52.4800       197
  52.5680       220
  52.6560       200
  52.7440       208
  52.8320       245
  52.9200       221
  53.0080       249
  53.0960       231
  53.1840       239
  53.2720       231
  53.3600       212
  53.4480       227
  53.5360       215
  53.6240       211
  53.7120       229
  53.8000       240
  53.8880       236
  53.9760       231
  54.0640       228
  54.1520       244
  54.2400       256
  54.3280       255
  54.4160       268
  54.5040       265
  54.5920       239
  54.6800       270
  54.7680       271
  54.8560       303
  54.9440       281
  55.0320       275
  55.1200       242
  55.2080       236
  55.2960       240
  55.3840       233
  55.4720       240
  55.5600       255
  55.6480       242
  55.7360       246
  55.8240       217
  55.9120       242
  56.0000       219
  56.0880       212
  56.1760       226
  56.2640       245
  56.3520       256
  56.4400       263
  56.5280       234
  56.6160       222
  56.7040       226
  56.7920       247
  56.8800       238
  56.9680       224
  57.0560       237
  57.1440       267
  57.2320       241
  57.3200       220
  57.4080       243
  57.4960       236
  57.5840       234
  57.6720       235
  57.7600       226
  57.8480       212
  57.9360       247
  58.0240       239
  58.1120       200
  58.2000       222
  58.2880       257
  58.3760       233
  58.4640       238
  58.5520       257
  58.6400       217
  58.7280       226
  58.8160       206
  58.9040       228
  58.9920       248
  59.0800       247
  59.1680       246
  59.2560       218
  59.3440       256
  59.4320       252
  59.5200       253
  59.6080       220
  59.6960       234
  59.7840       239
  59.8720       258
  59.9600       242
  60.0480       224
  60.1360       271
  60.2240       246
  60.3120       240
  60.4000       277
  60.4880       252
  60.5760       264
  60.6640       282
  60.7520       275
  60.8400       270
  60.9280       265
  61.0160       263
  61.1040       271
  61.1920       237
  61.2800       247
  61.3680       244
  61.4560       218
  61.5440       249
  61.6320       225
  61.7200       217
  61.8080       204
  61.8960       201
  61.9840       237
  62.0720       229
  62.1600       241
  62.2480       231
  62.3360       238
  62.4240       228
  62.5120       230
  62.6000       215
  62.6880       228
  62.7760       238
  62.8640       240
  62.9520       246
  63.0400       219
  63.1280       237
  63.2160       205
  63.3040       218
  63.3920       248
  63.4800       248
  63.5680       229
  63.6560       218
  63.7440       241
  63.8320       235
  63.9200       257
  64.0080       238
  64.0960       253
  64.1840       233
  64.2720       246
  64.3600       234
  64.4480       220
  64.5360       264
  64.6240       254
  64.7120       235
  64.8000       243
  64.8880       229
  64.9760       210
  65.0640       233
  65.1520       214
  65.2400       238
  65.3280       229
  65.4160       220
  65.5040       243
  65.5920       228
  65.6800       203
  65.7680       237
  65.8560       243
  65.9440       224
  66.0320       246
  66.1200       214
  66.2080       229
  66.2960       225
  66.3840       218
  66.4720       215
  66.5600       227
  66.6480       230
  66.7360       250
  66.8240       213
  66.9120       244
  67.0000       249
  67.0880       211
  67.1760       228
  67.2640       244
  67.3520       250
  67.4400       223
  67.5280       220
  67.6160       221
  67.7040       245
  67.7920       223
  67.8800       223
  67.9680       223
  68.0560       223
  68.1440       212
  68.2320       253
  68.3200       244
  68.4080       243
  68.4960       237
  68.5840       264
  68.6720       268
  68.7600       231
  68.8480       241
  68.9360       223
  69.0240       264
  69.1120       239
  69.2000       207
  69.2880       244
  69.3760       240
  69.4640       265
  69.5520       242
  69.6400       248
  69.7280       238
  69.8160       237
  69.9040       246
  69.9920       272
  70.0800       253
  70.1680       249
  70.2560       279
  70.3440       242
  70.4320       244
  70.5200       251
  70.6080       253
  70.6960       305
  70.7840       333
  70.8720       376
  70.9600       382
  71.0480       413
  71.1360       457
  71.2240       480
  71.3120       427
  71.4000       421
  71.4880       373
  71.5760       324
  71.6640       292
  71.7520       261
  71.8400       259
  71.9280       248
  72.0160       246
  72.1040       249
  72.1920       290
  72.2800       251
  72.3680       239
  72.4560       246
  72.5440       220
  72.6320       219
  72.7200       219
  72.8080       212
  72.8960       248
  72.9840       237
  73.0720       248
  73.1600       243
  73.2480       247
  73.3360       245
  73.4240       221
  73.5120       207
  73.6000       224
  73.6880       228
  73.7760       195
  73.8640       224
  73.9520       227
  74.0400       236
  74.1280       214
  74.2160       220
  74.3040       256
  74.3920       215
  74.4800       240
  74.5680       218
  74.6560       220
  74.7440       252
  74.8320       208
  74.9200       222
  75.0080       221
  75.0960       219
  75.1840       257
  75.2720       258
  75.3600       225
  75.4480       245
  75.5360       227
  75.6240       214
  75.7120       227
  75.8000       253
  75.8880       222
  75.9760       258
  76.0640       237
  76.1520       259
  76.2400       284
  76.3280       251
  76.4160       282
  76.5040       272
  76.5920       229
  76.6800       248
  76.7680       253
  76.8560       232
  76.9440       230
  77.0320       247
  77.1200       215
  77.2080       244
  77.2960       250
  77.3840       258
  77.4720       243
  77.5600       239
  77.6480       234
  77.7360       233
  77.8240       220
  77.9120       226
  78.0000       248
  78.0880       236
  78.1760       211
  78.2640       240
  78.3520       211
  78.4400       246
  78.5280       195
  78.6160       229
  78.7040       223
  78.7920       204
  78.8800       225
  78.9680       238
  79.0560       245
  79.1440       241
  79.2320       215
  79.3200       219
  79.4080       231
  79.4960       236
  79.5840       235
  79.6720       213
  79.7600       257
  79.8480       228
  79.9360       247
  80.0240       222
  80.1120       231
  80.2000       241
  80.2880       225
  80.3760       204
  80.4640       231
  80.5520       221
  80.6400       206
  80.7280       251
  80.8160       253
  80.9040       241
  80.9920       262
  81.0800       273
  81.1680       241
  81.2560       244
  81.3440       259
  81.4320       265
  81.5200       210
  81.6080       229
  81.6960       205
  81.7840       216
  81.8720       228
  81.9600       229
  82.0480       235
  82.1360       219
  82.2240       223
  82.3120       215
  82.4000       253
  82.4880       231
  82.5760       225
  82.6640       249
  82.7520       211
  82.8400       239
  82.9280       236
  83.0160       240
  83.1040       192
  83.1920       227
  83.2800       222
  83.3680       211
  83.4560       233
  83.5440       246
  83.6320       204
  83.7200       195
  83.8080       234
  83.8960       224
  83.9840       245
  84.0720       204
  84.1600       225
  84.2480       257
  84.3360       214
  84.4240       267
  84.5120       247
  84.6000       264
  84.6880       232
  84.7760       247
  84.8640       238
  84.9520       286
  85.0400       289
  85.1280       293
  85.2160       273
  85.3040       321
  85.3920       325
  85.4800       359
  85.5680       389
  85.6560       418
  85.7440       430
  85.8320       493
  85.9200       496
  86.0080       519
  86.0960       486
  86.1840       441
  86.2720       401
  86.3600       362
  86.4480       330
  86.5360       339
  86.6240       289
  86.7120       257
  86.8000       264
  86.8880       268
  86.9760       249
  87.0640       250
  87.1520       255
  87.2400       222
  87.3280       247
  87.4160       248
  87.5040       229
  87.5920       237
  87.6800       256
  87.7680       239
  87.8560       231
  87.9440       246
  88.0320       224
  88.1200       206
  88.2080       231
  88.2960       224
  88.3840       230
  88.4720       219
  88.5600       232
  88.6480       239
  88.7360       198
  88.8240       221
  88.9120       244
  89.0000       219
  89.0880       223
  89.1760       191
  89.2640       255
  89.3520       199
  89.4400       225
  89.5280       253
  89.6160       219
  89.7040       231
  89.7920       225
  89.8800       239
  89.9680       239
  90.0560       235
  90.1440       244
  90.2320       251
  90.3200       252
  90.4080       253
  90.4960       264
  90.5840       316
  90.6720       269
  90.7600       296
  90.8480       302
  90.9360       284
  91.0240       294
  91.1120       314
  91.2000       293
  91.2880       258
  91.3760       246
  91.4640       244
  91.5520       233
  91.6400       243
  91.7280       225
  91.8160       230
  91.9040       239
  91.9920       246
  92.0800       214
  92.1680       199
  92.2560       240
  92.3440       211
  92.4320       251
  92.5200       213
  92.6080       233
  92.6960       219
  92.7840       235
  92.8720       197
  92.9600       223
  93.0480       222
  93.1360       257
  93.2240       235
  93.3120       238
  93.4000       214
  93.4880       224
  93.5760       249
  93.6640       237
  93.7520       232
  93.8400       226
  93.9280       212
  94.0160       213
  94.1040       233
  94.1920       206
  94.2800       230
  94.3680       215
  94.4560       227
  94.5440       242
  94.6320       226
  94.7200       235
  94.8080       220
  94.8960       239
  94.9840       215
  95.0720       220
  95.1600       243
  95.2480       215
  95.3360       270
  95.4240       239
  95.5120       262
  95.6000       233
  95.6880       245
  95.7760       254
  95.8640       253
  95.9520       235
  96.0400       239
  96.1280       229
  96.2160       248
  96.3040       230
  96.3920       243
  96.4800       219
  96.5680       215
  96.6560       229
  96.7440       228
  96.8320       210
  96.9200       203
  97.0080       242
  97.0960       228
  97.1840       222
  97.2720       222
  97.3600       224
  97.4480       189
  97.5360       224
  97.6240       217
  97.7120       229
  97.8000       227
  97.8880       241
  97.9760       217
  98.0640       232
  98.1520       245
  98.2400       217
  98.3280       235
  98.4160       217
  98.5040       226
  98.5920       242
  98.6800       221
  98.7680       243
  98.8560       216
  98.9440       216
  99.0320       218
  99.1200       227
  99.2080       225
  99.2960       254
  99.3840       230
  99.4720       205
  99.5600       239
  99.6480       233
  99.7360       210
  99.8240       249
  99.9120       247
 100.0000       229
 100.0880       222
 100.1760       238
 100.2640       216
 100.3520       259
 100.4400       242
 100.5280       287
 100.6160       262
 100.7040       256
 100.7920       253
 100.8800       268
 100.9680       252
 101.0560       271
 101.1440       194
 101.2320       210
 101.3200       223
 101.4080       231
 101.4960       230
 101.5840       243
 101.6720       229
 101.7600       216
 101.8480       261
 101.9360       233
 102.0240       237
 102.1120       217
 102.2000       217
 102.2880       214
 102.3760       206
 102.4640       243
 102.5520       214
 102.6400       234
 102.7280       237
 102.8160       218
 102.9040       238
 102.9920       242
 103.0800       241
 103.1680       203
 103.2560       236
 103.3440       244
 103.4320       252
 103.5200       226
 103.6080       231
 103.6960       245
 103.7840       230
 103.8720       213
 103.9600       228
 104.0480       207
 104.1360       225
 104.2240       228
 104.3120       217
 104.4000       215
 104.4880       207
 104.5760       229
 104.6640       246
 104.7520       232
 104.8400       222
 104.9280       227
 105.0160       228
 105.1040       219
 105.1920       220
 105.2800       213
 105.3680       194
 105.4560       236
 105.5440       214
 105.6320       226
 105.7200       256
 105.8080       251
 105.8960       232
 105.9840       232
 106.0720       219
 106.1600       253
 106.2480       219
 106.3360       223
 106.4240       243
 106.5120       210
 106.6000       244
 106.6880       247
 106.7760       246
 106.8640       260
 106.9520       224
 107.0400       206
 107.1280       234
 107.2160       256
 107.3040       236
 107.3920       222
 107.4800       228
 107.5680       253
 107.6560       255
 107.7440       241
 107.8320       253
 107.9200       244
 108.0080       247
 108.0960       241
 108.1840       235
 108.2720       250
 108.3600       243
 108.4480       239
 108.5360       232
 108.6240       210
 108.7120       241
 108.8000       236
 108.8880       221
 108.9760       232
 109.0640       242
 109.1520       262
 109.2400       234
 109.3280       267
 109.4160       244
 109.5040       237
 109.5920       276
 109.6800       260
 109.7680       261
 109.8560       255
 109.9440       251
 110.0320       276
 110.1200       282
 110.2080       267
 110.2960       264
 110.3840       276
 110.4720       251
 110.5600       267
 110.6480       253
 110.7360       257
 110.8240       252
 110.9120       244
 111.0000       239
 111.0880       250
 111.1760       249
 111.2640       216
 111.3520       248
 111.4400       243
 111.5280       232
 111.6160       236
 111.7040       272
 111.7920       265
 111.8800       246
 111.9680       234
 112.0560       231
 112.1440       242
 112.2320       198
 112.3200       236
 112.4080       251
 112.4960       266
 112.5840       226
 112.6720       223
 112.7600       216
 112.8480       221
 112.9360       242
 113.0240       249
 113.1120       252
 113.2000       221
 113.2880       242
 113.3760       218
 113.4640       237
 113.5520       233
 113.6400       242
 113.7280       245
 113.8160       240
 113.9040       221
 113.9920       266
 114.0800       241
 114.1680       234
 114.2560       249
 114.3440       210
 114.4320       233
 114.5200       212
 114.6080       261
 114.6960       238
 114.7840       242
 114.8720       257
 114.9600       267
 115.0480       278
 115.1360       251
 115.2240       242
 115.3120       238
 115.4000       233
 115.4880       238
 115.5760       243
 115.6640       250
 115.7520       270
 115.8400       227
 115.9280       294
 116.0160       248
 116.1040       254
 116.1920       244
 116.2800       284
 116.3680       260
 116.4560       254
 116.5440       274
 116.6320       258
 116.7200       251
 116.8080       248
 116.8960       260
 116.9840       256
 117.0720       239
 117.1600       252
 117.2480       209
 117.3360       222
 117.4240       263
 117.5120       240
 117.6000       246
 117.6880       243
 117.7760       253
 117.8640       241
 117.9520       245
 118.0400       253
 118.1280       220
 118.2160       268
 118.3040       232
 118.3920       249
 118.4800       223
 118.5680       235
 118.6560       248
 118.7440       245
 118.8320       261
 118.9200       268
 119.0080       227
 119.0960       238
 119.1840       238
 119.2720       232
 119.3600       260
 119.4480       273
 119.5360       228
 119.6240       251
 119.7120       237
 119.8000       264
 119.8880       246
 119.9760       251
 120.0640       238
 120.1520       254
 120.2400       239
 120.3280       265
 120.4160       237
 120.5040       232
 120.5920       273
 120.6800       258
 120.7680       273
 120.8560       287
 120.9440       232
 121.0320       270
 121.1200       266
 121.2080       268
 121.2960       250
 121.3840       267
 121.4720       277
 121.5600       276
 121.6480       246
 121.7360       252
 121.8240       270
 121.9120       264
 122.0000       265