File: old/ueberstruktur/Auswertung/roentgenografische methode daten/probe2.UXD
; C:\Data\Froehlich\Praktikum\2016-02-09_ignatiev\probe2.raw(Diffrac Plus V1.01 file) converted by XCH V1.0
_FILEVERSION=2
_SAMPLE='Probe2'
_SITE='II. Physikalisches Institut'
_ATTACHMENTS_CODE=0
_GONIOMETER_RADIUS=200.5
_FIXED_DIVSLIT=2.000000
_FIXED_SAMPLESLIT=1.000000
_FIXED_DETSLIT=0.200000
_MONOCHROMATOR=0
; None
_THIN_FILM='N'
_BETA_FILTER='Y'
_FIXED_ANTISLIT=2.000000
_ANALYZER_CODE=0
; None
_DATEMEASURED='09-Feb-2016 20:56:04'
_WL_UNIT='A'
_WL1=1.540590
_WL2=1.544430
_WL3=1.392230
_WLRATIO=0.520000
_ANODE='Cu'
; (Data for Range number 1)
_DRIVE='COUPLED'
_STEPTIME=2.000000
_STEPSIZE=0.022000
_STEPMODE='C'
_START=12
_THETA=6.000000
_2THETA=12
_KHI=0.000000
_PHI=0.000000
_X=0.000000
_Y=0.000000
_Z=0.000000
_DIVERGENCE=0.000000
_ANTISCATTER=0.000000
_DETECTOR=1
; S.C.
_HV=1000
_GAIN=80
_LLD=0.550000
_ULD=1.310000
_DETECTORSLIT='unkn'
_AUX1=0.000000
_AUX2=0.000000
_AUX3=0.000000
_TIMESTARTED=13
_ROTATION_SPEED=120
_TEMP_RATE=-1.000000
_TEMP_DELAY=-1.000000
_KV=40
_MA=40
_RANGE_WL=1.540590
_3DPLANE=0
_2THETACOUNTS
  12.0000       233
  12.0880       239
  12.1760       223
  12.2640       234
  12.3520       222
  12.4400       214
  12.5280       225
  12.6160       234
  12.7040       240
  12.7920       214
  12.8800       216
  12.9680       206
  13.0560       215
  13.1440       213
  13.2320       237
  13.3200       211
  13.4080       254
  13.4960       226
  13.5840       233
  13.6720       243
  13.7600       249
  13.8480       255
  13.9360       230
  14.0240       264
  14.1120       216
  14.2000       222
  14.2880       264
  14.3760       253
  14.4640       243
  14.5520       278
  14.6400       243
  14.7280       266
  14.8160       240
  14.9040       260
  14.9920       244
  15.0800       233
  15.1680       252
  15.2560       243
  15.3440       250
  15.4320       289
  15.5200       243
  15.6080       263
  15.6960       276
  15.7840       243
  15.8720       281
  15.9600       254
  16.0480       275
  16.1360       260
  16.2240       257
  16.3120       267
  16.4000       245
  16.4880       270
  16.5760       259
  16.6640       259
  16.7520       266
  16.8400       248
  16.9280       297
  17.0160       307
  17.1040       287
  17.1920       292
  17.2800       283
  17.3680       287
  17.4560       273
  17.5440       270
  17.6320       246
  17.7200       307
  17.8080       341
  17.8960       303
  17.9840       306
  18.0720       290
  18.1600       307
  18.2480       263
  18.3360       270
  18.4240       287
  18.5120       292
  18.6000       304
  18.6880       274
  18.7760       325
  18.8640       327
  18.9520       296
  19.0400       305
  19.1280       323
  19.2160       300
  19.3040       322
  19.3920       325
  19.4800       309
  19.5680       330
  19.6560       317
  19.7440       339
  19.8320       299
  19.9200       297
  20.0080       306
  20.0960       270
  20.1840       337
  20.2720       351
  20.3600       324
  20.4480       312
  20.5360       361
  20.6240       347
  20.7120       361
  20.8000       358
  20.8880       330
  20.9760       365
  21.0640       373
  21.1520       349
  21.2400       383
  21.3280       341
  21.4160       368
  21.5040       364
  21.5920       379
  21.6800       362
  21.7680       381
  21.8560       360
  21.9440       403
  22.0320       366
  22.1200       381
  22.2080       362
  22.2960       365
  22.3840       380
  22.4720       386
  22.5600       404
  22.6480       402
  22.7360       377
  22.8240       388
  22.9120       393
  23.0000       441
  23.0880       442
  23.1760       443
  23.2640       497
  23.3520       490
  23.4400       530
  23.5280       521
  23.6160       522
  23.7040       511
  23.7920       510
  23.8800       478
  23.9680       466
  24.0560       435
  24.1440       466
  24.2320       437
  24.3200       441
  24.4080       451
  24.4960       416
  24.5840       423
  24.6720       435
  24.7600       431
  24.8480       464
  24.9360       436
  25.0240       422
  25.1120       436
  25.2000       379
  25.2880       397
  25.3760       379
  25.4640       380
  25.5520       393
  25.6400       395
  25.7280       426
  25.8160       401
  25.9040       360
  25.9920       373
  26.0800       370
  26.1680       337
  26.2560       403
  26.3440       382
  26.4320       390
  26.5200       397
  26.6080       437
  26.6960       365
  26.7840       415
  26.8720       397
  26.9600       405
  27.0480       394
  27.1360       410
  27.2240       388
  27.3120       395
  27.4000       408
  27.4880       359
  27.5760       379
  27.6640       375
  27.7520       365
  27.8400       377
  27.9280       366
  28.0160       412
  28.1040       406
  28.1920       409
  28.2800       350
  28.3680       400
  28.4560       383
  28.5440       376
  28.6320       376
  28.7200       386
  28.8080       375
  28.8960       356
  28.9840       367
  29.0720       343
  29.1600       373
  29.2480       393
  29.3360       373
  29.4240       423
  29.5120       366
  29.6000       395
  29.6880       408
  29.7760       388
  29.8640       397
  29.9520       391
  30.0400       395
  30.1280       383
  30.2160       393
  30.3040       391
  30.3920       361
  30.4800       359
  30.5680       400
  30.6560       391
  30.7440       372
  30.8320       378
  30.9200       351
  31.0080       422
  31.0960       398
  31.1840       358
  31.2720       360
  31.3600       404
  31.4480       408
  31.5360       383
  31.6240       377
  31.7120       377
  31.8000       385
  31.8880       389
  31.9760       384
  32.0640       402
  32.1520       366
  32.2400       371
  32.3280       386
  32.4160       396
  32.5040       370
  32.5920       414
  32.6800       409
  32.7680       398
  32.8560       369
  32.9440       386
  33.0320       391
  33.1200       418
  33.2080       449
  33.2960       426
  33.3840       475
  33.4720       454
  33.5600       433
  33.6480       470
  33.7360       468
  33.8240       530
  33.9120       425
  34.0000       428
  34.0880       421
  34.1760       426
  34.2640       393
  34.3520       412
  34.4400       375
  34.5280       385
  34.6160       380
  34.7040       343
  34.7920       346
  34.8800       352
  34.9680       384
  35.0560       368
  35.1440       340
  35.2320       371
  35.3200       381
  35.4080       338
  35.4960       382
  35.5840       386
  35.6720       357
  35.7600       367
  35.8480       397
  35.9360       361
  36.0240       349
  36.1120       392
  36.2000       388
  36.2880       334
  36.3760       363
  36.4640       346
  36.5520       379
  36.6400       398
  36.7280       330
  36.8160       374
  36.9040       356
  36.9920       383
  37.0800       372
  37.1680       388
  37.2560       379
  37.3440       439
  37.4320       443
  37.5200       401
  37.6080       381
  37.6960       405
  37.7840       445
  37.8720       466
  37.9600       474
  38.0480       513
  38.1360       437
  38.2240       422
  38.3120       425
  38.4000       387
  38.4880       393
  38.5760       357
  38.6640       388
  38.7520       382
  38.8400       382
  38.9280       370
  39.0160       369
  39.1040       385
  39.1920       382
  39.2800       376
  39.3680       354
  39.4560       402
  39.5440       376
  39.6320       383
  39.7200       421
  39.8080       428
  39.8960       416
  39.9840       410
  40.0720       441
  40.1600       414
  40.2480       419
  40.3360       467
  40.4240       462
  40.5120       464
  40.6000       438
  40.6880       464
  40.7760       516
  40.8640       510
  40.9520       570
  41.0400       698
  41.1280       784
  41.2160      1098
  41.3040      1546
  41.3920      2401
  41.4800      3340
  41.5680      3996
  41.6560      3529
  41.7440      2263
  41.8320      1394
  41.9200       971
  42.0080       708
  42.0960       593
  42.1840       471
  42.2720       471
  42.3600       479
  42.4480       443
  42.5360       397
  42.6240       400
  42.7120       413
  42.8000       423
  42.8880       403
  42.9760       442
  43.0640       423
  43.1520       451
  43.2400       425
  43.3280       432
  43.4160       478
  43.5040       425
  43.5920       422
  43.6800       386
  43.7680       416
  43.8560       432
  43.9440       428
  44.0320       434
  44.1200       423
  44.2080       401
  44.2960       391
  44.3840       357
  44.4720       391
  44.5600       380
  44.6480       399
  44.7360       402
  44.8240       377
  44.9120       412
  45.0000       387
  45.0880       386
  45.1760       356
  45.2640       391
  45.3520       390
  45.4400       398
  45.5280       385
  45.6160       381
  45.7040       385
  45.7920       428
  45.8800       432
  45.9680       381
  46.0560       369
  46.1440       430
  46.2320       417
  46.3200       373
  46.4080       407
  46.4960       397
  46.5840       468
  46.6720       425
  46.7600       479
  46.8480       409
  46.9360       450
  47.0240       427
  47.1120       429
  47.2000       482
  47.2880       512
  47.3760       463
  47.4640       485
  47.5520       562
  47.6400       606
  47.7280       719
  47.8160       758
  47.9040       984
  47.9920      1228
  48.0800      1500
  48.1680      1938
  48.2560      2418
  48.3440      2602
  48.4320      2634
  48.5200      2280
  48.6080      1756
  48.6960      1403
  48.7840      1015
  48.8720       831
  48.9600       692
  49.0480       549
  49.1360       531
  49.2240       481
  49.3120       442
  49.4000       437
  49.4880       436
  49.5760       402
  49.6640       419
  49.7520       451
  49.8400       404
  49.9280       405
  50.0160       385
  50.1040       384
  50.1920       433
  50.2800       391
  50.3680       406
  50.4560       386
  50.5440       370
  50.6320       404
  50.7200       419
  50.8080       405
  50.8960       390
  50.9840       398
  51.0720       405
  51.1600       381
  51.2480       353
  51.3360       387
  51.4240       391
  51.5120       381
  51.6000       361
  51.6880       400
  51.7760       373
  51.8640       385
  51.9520       408
  52.0400       388
  52.1280       405
  52.2160       424
  52.3040       401
  52.3920       394
  52.4800       406
  52.5680       392
  52.6560       353
  52.7440       399
  52.8320       427
  52.9200       405
  53.0080       404
  53.0960       395
  53.1840       395
  53.2720       394
  53.3600       404
  53.4480       417
  53.5360       408
  53.6240       408
  53.7120       398
  53.8000       451
  53.8880       375
  53.9760       430
  54.0640       432
  54.1520       442
  54.2400       428
  54.3280       472
  54.4160       475
  54.5040       489
  54.5920       516
  54.6800       484
  54.7680       508
  54.8560       496
  54.9440       474
  55.0320       417
  55.1200       438
  55.2080       409
  55.2960       389
  55.3840       449
  55.4720       394
  55.5600       387
  55.6480       383
  55.7360       425
  55.8240       397
  55.9120       416
  56.0000       389
  56.0880       391
  56.1760       411
  56.2640       436
  56.3520       403
  56.4400       366
  56.5280       374
  56.6160       410
  56.7040       414
  56.7920       373
  56.8800       374
  56.9680       393
  57.0560       388
  57.1440       387
  57.2320       386
  57.3200       366
  57.4080       389
  57.4960       405
  57.5840       401
  57.6720       402
  57.7600       417
  57.8480       404
  57.9360       365
  58.0240       404
  58.1120       402
  58.2000       403
  58.2880       388
  58.3760       423
  58.4640       412
  58.5520       367
  58.6400       389
  58.7280       423
  58.8160       374
  58.9040       357
  58.9920       412
  59.0800       385
  59.1680       412
  59.2560       368
  59.3440       421
  59.4320       412
  59.5200       423
  59.6080       410
  59.6960       393
  59.7840       378
  59.8720       465
  59.9600       450
  60.0480       420
  60.1360       447
  60.2240       432
  60.3120       475
  60.4000       494
  60.4880       487
  60.5760       436
  60.6640       438
  60.7520       428
  60.8400       414
  60.9280       425
  61.0160       417
  61.1040       412
  61.1920       416
  61.2800       375
  61.3680       417
  61.4560       376
  61.5440       376
  61.6320       449
  61.7200       395
  61.8080       430
  61.8960       360
  61.9840       388
  62.0720       397
  62.1600       405
  62.2480       413
  62.3360       400
  62.4240       365
  62.5120       400
  62.6000       428
  62.6880       384
  62.7760       382
  62.8640       415
  62.9520       412
  63.0400       388
  63.1280       409
  63.2160       409
  63.3040       424
  63.3920       427
  63.4800       423
  63.5680       431
  63.6560       398
  63.7440       412
  63.8320       412
  63.9200       436
  64.0080       413
  64.0960       423
  64.1840       387
  64.2720       462
  64.3600       458
  64.4480       433
  64.5360       471
  64.6240       398
  64.7120       398
  64.8000       410
  64.8880       378
  64.9760       407
  65.0640       388
  65.1520       401
  65.2400       403
  65.3280       371
  65.4160       381
  65.5040       385
  65.5920       385
  65.6800       388
  65.7680       384
  65.8560       412
  65.9440       384
  66.0320       368
  66.1200       395
  66.2080       416
  66.2960       419
  66.3840       458
  66.4720       402
  66.5600       384
  66.6480       363
  66.7360       395
  66.8240       403
  66.9120       414
  67.0000       398
  67.0880       394
  67.1760       381
  67.2640       392
  67.3520       408
  67.4400       400
  67.5280       449
  67.6160       390
  67.7040       404
  67.7920       397
  67.8800       426
  67.9680       423
  68.0560       393
  68.1440       399
  68.2320       422
  68.3200       398
  68.4080       399
  68.4960       383
  68.5840       413
  68.6720       410
  68.7600       405
  68.8480       408
  68.9360       371
  69.0240       416
  69.1120       385
  69.2000       394
  69.2880       406
  69.3760       393
  69.4640       407
  69.5520       407
  69.6400       481
  69.7280       411
  69.8160       396
  69.9040       426
  69.9920       446
  70.0800       466
  70.1680       442
  70.2560       473
  70.3440       530
  70.4320       507
  70.5200       536
  70.6080       589
  70.6960       684
  70.7840       779
  70.8720       924
  70.9600       951
  71.0480       992
  71.1360       998
  71.2240       847
  71.3120       748
  71.4000       588
  71.4880       529
  71.5760       512
  71.6640       450
  71.7520       449
  71.8400       437
  71.9280       442
  72.0160       440
  72.1040       407
  72.1920       421
  72.2800       416
  72.3680       397
  72.4560       368
  72.5440       428
  72.6320       419
  72.7200       416
  72.8080       366
  72.8960       419
  72.9840       429
  73.0720       405
  73.1600       407
  73.2480       393
  73.3360       425
  73.4240       418
  73.5120       386
  73.6000       398
  73.6880       410
  73.7760       388
  73.8640       412
  73.9520       403
  74.0400       385
  74.1280       422
  74.2160       424
  74.3040       417
  74.3920       408
  74.4800       431
  74.5680       407
  74.6560       458
  74.7440       425
  74.8320       380
  74.9200       422
  75.0080       416
  75.0960       378
  75.1840       417
  75.2720       386
  75.3600       380
  75.4480       421
  75.5360       418
  75.6240       427
  75.7120       462
  75.8000       469
  75.8880       485
  75.9760       435
  76.0640       445
  76.1520       443
  76.2400       437
  76.3280       423
  76.4160       469
  76.5040       493
  76.5920       410
  76.6800       415
  76.7680       434
  76.8560       393
  76.9440       397
  77.0320       419
  77.1200       456
  77.2080       380
  77.2960       453
  77.3840       414
  77.4720       430
  77.5600       400
  77.6480       406
  77.7360       402
  77.8240       407
  77.9120       408
  78.0000       376
  78.0880       415
  78.1760       439
  78.2640       432
  78.3520       368
  78.4400       431
  78.5280       448
  78.6160       423
  78.7040       409
  78.7920       408
  78.8800       420
  78.9680       419
  79.0560       396
  79.1440       425
  79.2320       409
  79.3200       420
  79.4080       418
  79.4960       441
  79.5840       436
  79.6720       405
  79.7600       403
  79.8480       432
  79.9360       424
  80.0240       409
  80.1120       425
  80.2000       409
  80.2880       414
  80.3760       429
  80.4640       460
  80.5520       415
  80.6400       449
  80.7280       410
  80.8160       473
  80.9040       484
  80.9920       429
  81.0800       460
  81.1680       418
  81.2560       447
  81.3440       437
  81.4320       449
  81.5200       437
  81.6080       415
  81.6960       436
  81.7840       408
  81.8720       445
  81.9600       433
  82.0480       441
  82.1360       433
  82.2240       423
  82.3120       490
  82.4000       406
  82.4880       379
  82.5760       411
  82.6640       420
  82.7520       438
  82.8400       474
  82.9280       393
  83.0160       395
  83.1040       419
  83.1920       419
  83.2800       399
  83.3680       436
  83.4560       401
  83.5440       418
  83.6320       416
  83.7200       460
  83.8080       391
  83.8960       440
  83.9840       412
  84.0720       438
  84.1600       444
  84.2480       435
  84.3360       469
  84.4240       459
  84.5120       437
  84.6000       457
  84.6880       455
  84.7760       488
  84.8640       467
  84.9520       512
  85.0400       572
  85.1280       558
  85.2160       592
  85.3040       585
  85.3920       691
  85.4800       753
  85.5680       799
  85.6560       922
  85.7440      1004
  85.8320       955
  85.9200       947
  86.0080       922
  86.0960       914
  86.1840       865
  86.2720       804
  86.3600       715
  86.4480       636
  86.5360       623
  86.6240       536
  86.7120       542
  86.8000       509
  86.8880       462
  86.9760       455
  87.0640       425
  87.1520       441
  87.2400       444
  87.3280       454
  87.4160       421
  87.5040       406
  87.5920       407
  87.6800       411
  87.7680       416
  87.8560       403
  87.9440       453
  88.0320       432
  88.1200       437
  88.2080       414
  88.2960       409
  88.3840       399
  88.4720       427
  88.5600       410
  88.6480       417
  88.7360       408
  88.8240       459
  88.9120       428
  89.0000       446
  89.0880       420
  89.1760       395
  89.2640       417
  89.3520       435
  89.4400       415
  89.5280       436
  89.6160       441
  89.7040       401
  89.7920       446
  89.8800       393
  89.9680       444
  90.0560       427
  90.1440       497
  90.2320       466
  90.3200       520
  90.4080       508
  90.4960       526
  90.5840       549
  90.6720       555
  90.7600       585
  90.8480       610
  90.9360       552
  91.0240       549
  91.1120       526
  91.2000       487
  91.2880       506
  91.3760       471
  91.4640       443
  91.5520       421
  91.6400       453
  91.7280       370
  91.8160       410
  91.9040       397
  91.9920       427
  92.0800       429
  92.1680       403
  92.2560       427
  92.3440       417
  92.4320       385
  92.5200       394
  92.6080       381
  92.6960       421
  92.7840       422
  92.8720       372
  92.9600       430
  93.0480       425
  93.1360       404
  93.2240       411
  93.3120       446
  93.4000       419
  93.4880       416
  93.5760       398
  93.6640       408
  93.7520       408
  93.8400       414
  93.9280       384
  94.0160       370
  94.1040       421
  94.1920       412
  94.2800       405
  94.3680       406
  94.4560       420
  94.5440       432
  94.6320       415
  94.7200       436
  94.8080       428
  94.8960       416
  94.9840       412
  95.0720       397
  95.1600       427
  95.2480       457
  95.3360       474
  95.4240       436
  95.5120       470
  95.6000       409
  95.6880       437
  95.7760       464
  95.8640       447
  95.9520       453
  96.0400       455
  96.1280       447
  96.2160       419
  96.3040       426
  96.3920       425
  96.4800       433
  96.5680       419
  96.6560       464
  96.7440       467
  96.8320       423
  96.9200       431
  97.0080       421
  97.0960       434
  97.1840       421
  97.2720       407
  97.3600       395
  97.4480       426
  97.5360       402
  97.6240       408
  97.7120       427
  97.8000       391
  97.8880       443
  97.9760       436
  98.0640       395
  98.1520       423
  98.2400       433
  98.3280       384
  98.4160       396
  98.5040       430
  98.5920       403
  98.6800       385
  98.7680       462
  98.8560       424
  98.9440       445
  99.0320       373
  99.1200       399
  99.2080       403
  99.2960       407
  99.3840       424
  99.4720       387
  99.5600       420
  99.6480       448
  99.7360       422
  99.8240       423
  99.9120       431
 100.0000       430
 100.0880       405
 100.1760       428
 100.2640       453
 100.3520       462
 100.4400       437
 100.5280       470
 100.6160       474
 100.7040       415
 100.7920       457
 100.8800       447
 100.9680       435
 101.0560       443
 101.1440       447
 101.2320       436
 101.3200       447
 101.4080       467
 101.4960       466
 101.5840       447
 101.6720       441
 101.7600       430
 101.8480       418
 101.9360       411
 102.0240       428
 102.1120       403
 102.2000       413
 102.2880       441
 102.3760       411
 102.4640       478
 102.5520       400
 102.6400       404
 102.7280       392
 102.8160       390
 102.9040       396
 102.9920       423
 103.0800       412
 103.1680       436
 103.2560       406
 103.3440       443
 103.4320       424
 103.5200       408
 103.6080       406
 103.6960       420
 103.7840       387
 103.8720       425
 103.9600       469
 104.0480       420
 104.1360       417
 104.2240       436
 104.3120       436
 104.4000       425
 104.4880       433
 104.5760       432
 104.6640       427
 104.7520       420
 104.8400       463
 104.9280       416
 105.0160       399
 105.1040       435
 105.1920       435
 105.2800       421
 105.3680       391
 105.4560       457
 105.5440       420
 105.6320       417
 105.7200       434
 105.8080       408
 105.8960       414
 105.9840       403
 106.0720       441
 106.1600       413
 106.2480       442
 106.3360       478
 106.4240       370
 106.5120       427
 106.6000       423
 106.6880       433
 106.7760       422
 106.8640       425
 106.9520       428
 107.0400       394
 107.1280       419
 107.2160       414
 107.3040       432
 107.3920       423
 107.4800       448
 107.5680       413
 107.6560       423
 107.7440       448
 107.8320       415
 107.9200       449
 108.0080       410
 108.0960       401
 108.1840       427
 108.2720       421
 108.3600       450
 108.4480       448
 108.5360       425
 108.6240       472
 108.7120       428
 108.8000       425
 108.8880       443
 108.9760       450
 109.0640       448
 109.1520       401
 109.2400       455
 109.3280       462
 109.4160       413
 109.5040       465
 109.5920       488
 109.6800       491
 109.7680       476
 109.8560       499
 109.9440       519
 110.0320       478
 110.1200       524
 110.2080       493
 110.2960       529
 110.3840       492
 110.4720       582
 110.5600       556
 110.6480       543
 110.7360       504
 110.8240       524
 110.9120       537
 111.0000       530
 111.0880       535
 111.1760       530
 111.2640       459
 111.3520       508
 111.4400       452
 111.5280       485
 111.6160       475
 111.7040       437
 111.7920       453
 111.8800       488
 111.9680       459
 112.0560       422
 112.1440       471
 112.2320       448
 112.3200       396
 112.4080       438
 112.4960       396
 112.5840       442
 112.6720       462
 112.7600       454
 112.8480       455
 112.9360       441
 113.0240       424
 113.1120       421
 113.2000       433
 113.2880       455
 113.3760       431
 113.4640       452
 113.5520       426
 113.6400       462
 113.7280       436
 113.8160       463
 113.9040       422
 113.9920       438
 114.0800       454
 114.1680       433
 114.2560       470
 114.3440       453
 114.4320       431
 114.5200       452
 114.6080       436
 114.6960       459
 114.7840       463
 114.8720       424
 114.9600       435
 115.0480       431
 115.1360       450
 115.2240       462
 115.3120       484
 115.4000       429
 115.4880       503
 115.5760       455
 115.6640       473
 115.7520       465
 115.8400       473
 115.9280       448
 116.0160       498
 116.1040       509
 116.1920       457
 116.2800       486
 116.3680       492
 116.4560       442
 116.5440       470
 116.6320       496
 116.7200       455
 116.8080       467
 116.8960       437
 116.9840       486
 117.0720       432
 117.1600       442
 117.2480       436
 117.3360       447
 117.4240       453
 117.5120       415
 117.6000       460
 117.6880       481
 117.7760       471
 117.8640       459
 117.9520       410
 118.0400       416
 118.1280       473
 118.2160       447
 118.3040       464
 118.3920       418
 118.4800       466
 118.5680       446
 118.6560       449
 118.7440       454
 118.8320       435
 118.9200       428
 119.0080       444
 119.0960       431
 119.1840       438
 119.2720       488
 119.3600       448
 119.4480       458
 119.5360       441
 119.6240       450
 119.7120       426
 119.8000       447
 119.8880       451
 119.9760       469
 120.0640       474
 120.1520       469
 120.2400       467
 120.3280       477
 120.4160       457
 120.5040       464
 120.5920       470
 120.6800       442
 120.7680       428
 120.8560       500
 120.9440       485
 121.0320       439
 121.1200       475
 121.2080       420
 121.2960       487
 121.3840       489
 121.4720       517
 121.5600       495
 121.6480       464
 121.7360       474
 121.8240       457
 121.9120       464
 122.0000       442