File: old/ueberstruktur/Ueberstruktur (2)/faber/probe3.UXD
; C:\Data\Froehlich\Praktikum\faber\probe3.raw(Diffrac Plus V1.01 file) converted by XCH V1.0
_FILEVERSION=2
_SAMPLE='probe3'
_SITE='II. Physikalisches Institut'
_ATTACHMENTS_CODE=0
_GONIOMETER_RADIUS=200.5
_FIXED_DIVSLIT=2.000000
_FIXED_SAMPLESLIT=1.000000
_FIXED_DETSLIT=0.200000
_MONOCHROMATOR=0
; None
_THIN_FILM='N'
_BETA_FILTER='Y'
_FIXED_ANTISLIT=2.000000
_ANALYZER_CODE=0
; None
_DATEMEASURED='12-Nov-2015 14:08:13'
_WL_UNIT='A'
_WL1=1.540590
_WL2=1.544430
_WL3=1.392230
_WLRATIO=0.520000
_ANODE='Cu'
; (Data for Range number 1)
_DRIVE='COUPLED'
_STEPTIME=2.000000
_STEPSIZE=0.022000
_STEPMODE='C'
_START=12
_THETA=6.000000
_2THETA=12
_KHI=0.000000
_PHI=0.000000
_X=0.000000
_Y=0.000000
_Z=0.000000
_DIVERGENCE=0.000000
_ANTISCATTER=0.000000
_DETECTOR=1
; S.C.
_HV=1000
_GAIN=80
_LLD=0.550000
_ULD=1.310000
_DETECTORSLIT='unkn'
_AUX1=0.000000
_AUX2=0.000000
_AUX3=0.000000
_TIMESTARTED=12
_ROTATION_SPEED=120
_TEMP_RATE=-1.000000
_TEMP_DELAY=-1.000000
_KV=40
_MA=40
_RANGE_WL=1.540590
_3DPLANE=0
_2THETACOUNTS
  12.0000       297
  12.0880       255
  12.1760       301
  12.2640       279
  12.3520       258
  12.4400       265
  12.5280       246
  12.6160       252
  12.7040       261
  12.7920       264
  12.8800       281
  12.9680       283
  13.0560       258
  13.1440       274
  13.2320       240
  13.3200       244
  13.4080       270
  13.4960       256
  13.5840       270
  13.6720       260
  13.7600       265
  13.8480       248
  13.9360       281
  14.0240       277
  14.1120       239
  14.2000       268
  14.2880       268
  14.3760       282
  14.4640       279
  14.5520       236
  14.6400       279
  14.7280       331
  14.8160       260
  14.9040       287
  14.9920       270
  15.0800       259
  15.1680       297
  15.2560       255
  15.3440       280
  15.4320       281
  15.5200       272
  15.6080       304
  15.6960       294
  15.7840       286
  15.8720       292
  15.9600       290
  16.0480       299
  16.1360       286
  16.2240       278
  16.3120       298
  16.4000       290
  16.4880       289
  16.5760       291
  16.6640       290
  16.7520       280
  16.8400       317
  16.9280       303
  17.0160       312
  17.1040       308
  17.1920       284
  17.2800       305
  17.3680       325
  17.4560       316
  17.5440       338
  17.6320       311
  17.7200       331
  17.8080       302
  17.8960       332
  17.9840       331
  18.0720       312
  18.1600       328
  18.2480       351
  18.3360       326
  18.4240       327
  18.5120       369
  18.6000       337
  18.6880       350
  18.7760       356
  18.8640       388
  18.9520       364
  19.0400       341
  19.1280       390
  19.2160       356
  19.3040       363
  19.3920       371
  19.4800       375
  19.5680       326
  19.6560       423
  19.7440       372
  19.8320       408
  19.9200       367
  20.0080       366
  20.0960       348
  20.1840       382
  20.2720       424
  20.3600       377
  20.4480       400
  20.5360       403
  20.6240       366
  20.7120       401
  20.8000       386
  20.8880       418
  20.9760       397
  21.0640       411
  21.1520       398
  21.2400       408
  21.3280       452
  21.4160       393
  21.5040       445
  21.5920       428
  21.6800       402
  21.7680       391
  21.8560       461
  21.9440       429
  22.0320       409
  22.1200       397
  22.2080       399
  22.2960       438
  22.3840       419
  22.4720       416
  22.5600       430
  22.6480       435
  22.7360       466
  22.8240       420
  22.9120       455
  23.0000       449
  23.0880       465
  23.1760       460
  23.2640       450
  23.3520       424
  23.4400       472
  23.5280       484
  23.6160       446
  23.7040       485
  23.7920       444
  23.8800       438
  23.9680       443
  24.0560       432
  24.1440       429
  24.2320       452
  24.3200       446
  24.4080       444
  24.4960       447
  24.5840       427
  24.6720       432
  24.7600       472
  24.8480       453
  24.9360       472
  25.0240       474
  25.1120       477
  25.2000       448
  25.2880       446
  25.3760       464
  25.4640       471
  25.5520       438
  25.6400       472
  25.7280       436
  25.8160       444
  25.9040       508
  25.9920       466
  26.0800       443
  26.1680       465
  26.2560       416
  26.3440       453
  26.4320       491
  26.5200       464
  26.6080       442
  26.6960       439
  26.7840       462
  26.8720       494
  26.9600       485
  27.0480       434
  27.1360       455
  27.2240       450
  27.3120       454
  27.4000       481
  27.4880       452
  27.5760       442
  27.6640       447
  27.7520       435
  27.8400       437
  27.9280       425
  28.0160       456
  28.1040       428
  28.1920       452
  28.2800       433
  28.3680       443
  28.4560       479
  28.5440       475
  28.6320       433
  28.7200       414
  28.8080       454
  28.8960       441
  28.9840       400
  29.0720       448
  29.1600       451
  29.2480       442
  29.3360       461
  29.4240       428
  29.5120       402
  29.6000       375
  29.6880       417
  29.7760       422
  29.8640       448
  29.9520       434
  30.0400       450
  30.1280       439
  30.2160       407
  30.3040       420
  30.3920       443
  30.4800       435
  30.5680       439
  30.6560       454
  30.7440       429
  30.8320       384
  30.9200       436
  31.0080       415
  31.0960       443
  31.1840       433
  31.2720       432
  31.3600       411
  31.4480       430
  31.5360       452
  31.6240       423
  31.7120       434
  31.8000       416
  31.8880       421
  31.9760       374
  32.0640       383
  32.1520       414
  32.2400       443
  32.3280       411
  32.4160       428
  32.5040       400
  32.5920       451
  32.6800       471
  32.7680       410
  32.8560       424
  32.9440       408
  33.0320       394
  33.1200       415
  33.2080       429
  33.2960       436
  33.3840       408
  33.4720       418
  33.5600       396
  33.6480       394
  33.7360       388
  33.8240       400
  33.9120       423
  34.0000       424
  34.0880       428
  34.1760       405
  34.2640       420
  34.3520       405
  34.4400       437
  34.5280       379
  34.6160       422
  34.7040       414
  34.7920       439
  34.8800       436
  34.9680       409
  35.0560       414
  35.1440       410
  35.2320       384
  35.3200       370
  35.4080       389
  35.4960       429
  35.5840       428
  35.6720       417
  35.7600       385
  35.8480       428
  35.9360       390
  36.0240       379
  36.1120       407
  36.2000       383
  36.2880       401
  36.3760       378
  36.4640       405
  36.5520       411
  36.6400       379
  36.7280       416
  36.8160       399
  36.9040       415
  36.9920       360
  37.0800       369
  37.1680       399
  37.2560       380
  37.3440       411
  37.4320       440
  37.5200       423
  37.6080       427
  37.6960       462
  37.7840       468
  37.8720       420
  37.9600       444
  38.0480       423
  38.1360       427
  38.2240       446
  38.3120       441
  38.4000       402
  38.4880       434
  38.5760       396
  38.6640       378
  38.7520       389
  38.8400       381
  38.9280       378
  39.0160       388
  39.1040       391
  39.1920       393
  39.2800       367
  39.3680       396
  39.4560       372
  39.5440       373
  39.6320       393
  39.7200       398
  39.8080       387
  39.8960       433
  39.9840       407
  40.0720       438
  40.1600       408
  40.2480       434
  40.3360       436
  40.4240       420
  40.5120       483
  40.6000       417
  40.6880       459
  40.7760       466
  40.8640       427
  40.9520       433
  41.0400       471
  41.1280       479
  41.2160       519
  41.3040       574
  41.3920       686
  41.4800       772
  41.5680      1024
  41.6560      1473
  41.7440      2374
  41.8320      3623
  41.9200      4301
  42.0080      3483
  42.0960      2283
  42.1840      1346
  42.2720       944
  42.3600       734
  42.4480       576
  42.5360       547
  42.6240       485
  42.7120       451
  42.8000       468
  42.8880       462
  42.9760       453
  43.0640       450
  43.1520       420
  43.2400       453
  43.3280       409
  43.4160       425
  43.5040       421
  43.5920       405
  43.6800       423
  43.7680       451
  43.8560       423
  43.9440       433
  44.0320       386
  44.1200       424
  44.2080       427
  44.2960       414
  44.3840       425
  44.4720       437
  44.5600       386
  44.6480       408
  44.7360       410
  44.8240       395
  44.9120       389
  45.0000       392
  45.0880       375
  45.1760       414
  45.2640       382
  45.3520       416
  45.4400       406
  45.5280       403
  45.6160       416
  45.7040       375
  45.7920       389
  45.8800       381
  45.9680       388
  46.0560       443
  46.1440       427
  46.2320       402
  46.3200       375
  46.4080       400
  46.4960       426
  46.5840       397
  46.6720       429
  46.7600       359
  46.8480       443
  46.9360       422
  47.0240       397
  47.1120       445
  47.2000       400
  47.2880       393
  47.3760       445
  47.4640       445
  47.5520       440
  47.6400       478
  47.7280       465
  47.8160       505
  47.9040       526
  47.9920       528
  48.0800       618
  48.1680       771
  48.2560       838
  48.3440      1085
  48.4320      1345
  48.5200      1834
  48.6080      2120
  48.6960      2317
  48.7840      2063
  48.8720      1660
  48.9600      1251
  49.0480       939
  49.1360       745
  49.2240       619
  49.3120       610
  49.4000       522
  49.4880       453
  49.5760       447
  49.6640       443
  49.7520       429
  49.8400       429
  49.9280       407
  50.0160       452
  50.1040       436
  50.1920       350
  50.2800       423
  50.3680       404
  50.4560       405
  50.5440       412
  50.6320       398
  50.7200       376
  50.8080       394
  50.8960       407
  50.9840       420
  51.0720       366
  51.1600       395
  51.2480       395
  51.3360       403
  51.4240       370
  51.5120       416
  51.6000       368
  51.6880       366
  51.7760       378
  51.8640       370
  51.9520       388
  52.0400       415
  52.1280       384
  52.2160       386
  52.3040       398
  52.3920       412
  52.4800       398
  52.5680       382
  52.6560       362
  52.7440       432
  52.8320       414
  52.9200       406
  53.0080       392
  53.0960       384
  53.1840       364
  53.2720       392
  53.3600       365
  53.4480       410
  53.5360       425
  53.6240       409
  53.7120       387
  53.8000       436
  53.8880       365
  53.9760       385
  54.0640       398
  54.1520       384
  54.2400       401
  54.3280       452
  54.4160       348
  54.5040       413
  54.5920       362
  54.6800       408
  54.7680       405
  54.8560       395
  54.9440       410
  55.0320       413
  55.1200       406
  55.2080       392
  55.2960       406
  55.3840       410
  55.4720       380
  55.5600       401
  55.6480       384
  55.7360       394
  55.8240       386
  55.9120       360
  56.0000       384
  56.0880       383
  56.1760       368
  56.2640       414
  56.3520       405
  56.4400       419
  56.5280       410
  56.6160       351
  56.7040       406
  56.7920       377
  56.8800       403
  56.9680       416
  57.0560       425
  57.1440       381
  57.2320       385
  57.3200       396
  57.4080       400
  57.4960       356
  57.5840       396
  57.6720       395
  57.7600       384
  57.8480       411
  57.9360       427
  58.0240       388
  58.1120       435
  58.2000       369
  58.2880       389
  58.3760       406
  58.4640       351
  58.5520       387
  58.6400       405
  58.7280       382
  58.8160       380
  58.9040       447
  58.9920       408
  59.0800       397
  59.1680       394
  59.2560       409
  59.3440       438
  59.4320       417
  59.5200       393
  59.6080       408
  59.6960       428
  59.7840       409
  59.8720       385
  59.9600       378
  60.0480       400
  60.1360       406
  60.2240       422
  60.3120       382
  60.4000       399
  60.4880       413
  60.5760       396
  60.6640       417
  60.7520       418
  60.8400       361
  60.9280       392
  61.0160       440
  61.1040       389
  61.1920       404
  61.2800       390
  61.3680       418
  61.4560       380
  61.5440       409
  61.6320       397
  61.7200       393
  61.8080       398
  61.8960       412
  61.9840       400
  62.0720       398
  62.1600       387
  62.2480       403
  62.3360       403
  62.4240       393
  62.5120       430
  62.6000       413
  62.6880       372
  62.7760       405
  62.8640       365
  62.9520       399
  63.0400       366
  63.1280       400
  63.2160       416
  63.3040       446
  63.3920       404
  63.4800       426
  63.5680       394
  63.6560       422
  63.7440       383
  63.8320       414
  63.9200       373
  64.0080       385
  64.0960       386
  64.1840       426
  64.2720       407
  64.3600       396
  64.4480       402
  64.5360       425
  64.6240       415
  64.7120       449
  64.8000       430
  64.8880       405
  64.9760       427
  65.0640       426
  65.1520       406
  65.2400       400
  65.3280       416
  65.4160       418
  65.5040       405
  65.5920       398
  65.6800       403
  65.7680       398
  65.8560       441
  65.9440       390
  66.0320       400
  66.1200       432
  66.2080       415
  66.2960       418
  66.3840       414
  66.4720       411
  66.5600       389
  66.6480       406
  66.7360       415
  66.8240       386
  66.9120       387
  67.0000       409
  67.0880       435
  67.1760       364
  67.2640       408
  67.3520       384
  67.4400       378
  67.5280       412
  67.6160       417
  67.7040       402
  67.7920       409
  67.8800       420
  67.9680       388
  68.0560       407
  68.1440       398
  68.2320       390
  68.3200       396
  68.4080       385
  68.4960       401
  68.5840       410
  68.6720       404
  68.7600       409
  68.8480       378
  68.9360       406
  69.0240       406
  69.1120       424
  69.2000       456
  69.2880       383
  69.3760       393
  69.4640       407
  69.5520       392
  69.6400       427
  69.7280       383
  69.8160       393
  69.9040       358
  69.9920       447
  70.0800       419
  70.1680       419
  70.2560       421
  70.3440       397
  70.4320       430
  70.5200       434
  70.6080       473
  70.6960       551
  70.7840       532
  70.8720       653
  70.9600       750
  71.0480       888
  71.1360      1013
  71.2240      1138
  71.3120      1173
  71.4000      1064
  71.4880       918
  71.5760       756
  71.6640       661
  71.7520       519
  71.8400       505
  71.9280       548
  72.0160       453
  72.1040       445
  72.1920       419
  72.2800       428
  72.3680       411
  72.4560       427
  72.5440       427
  72.6320       404
  72.7200       386
  72.8080       408
  72.8960       395
  72.9840       384
  73.0720       404
  73.1600       419
  73.2480       428
  73.3360       392
  73.4240       364
  73.5120       430
  73.6000       399
  73.6880       421
  73.7760       385
  73.8640       363
  73.9520       398
  74.0400       437
  74.1280       389
  74.2160       393
  74.3040       427
  74.3920       426
  74.4800       421
  74.5680       417
  74.6560       398
  74.7440       380
  74.8320       375
  74.9200       393
  75.0080       402
  75.0960       381
  75.1840       407
  75.2720       368
  75.3600       400
  75.4480       415
  75.5360       443
  75.6240       394
  75.7120       395
  75.8000       378
  75.8880       401
  75.9760       407
  76.0640       390
  76.1520       417
  76.2400       383
  76.3280       424
  76.4160       390
  76.5040       396
  76.5920       398
  76.6800       417
  76.7680       377
  76.8560       409
  76.9440       390
  77.0320       406
  77.1200       386
  77.2080       409
  77.2960       400
  77.3840       404
  77.4720       443
  77.5600       389
  77.6480       383
  77.7360       394
  77.8240       415
  77.9120       395
  78.0000       404
  78.0880       404
  78.1760       404
  78.2640       425
  78.3520       413
  78.4400       405
  78.5280       392
  78.6160       423
  78.7040       430
  78.7920       386
  78.8800       386
  78.9680       404
  79.0560       392
  79.1440       408
  79.2320       396
  79.3200       425
  79.4080       439
  79.4960       365
  79.5840       438
  79.6720       406
  79.7600       394
  79.8480       413
  79.9360       396
  80.0240       407
  80.1120       419
  80.2000       412
  80.2880       439
  80.3760       422
  80.4640       413
  80.5520       428
  80.6400       401
  80.7280       397
  80.8160       434
  80.9040       390
  80.9920       410
  81.0800       397
  81.1680       418
  81.2560       421
  81.3440       414
  81.4320       386
  81.5200       417
  81.6080       423
  81.6960       394
  81.7840       374
  81.8720       391
  81.9600       401
  82.0480       398
  82.1360       428
  82.2240       426
  82.3120       414
  82.4000       396
  82.4880       435
  82.5760       417
  82.6640       405
  82.7520       410
  82.8400       414
  82.9280       437
  83.0160       388
  83.1040       394
  83.1920       393
  83.2800       416
  83.3680       423
  83.4560       429
  83.5440       413
  83.6320       386
  83.7200       408
  83.8080       424
  83.8960       409
  83.9840       419
  84.0720       412
  84.1600       442
  84.2480       411
  84.3360       410
  84.4240       427
  84.5120       441
  84.6000       406
  84.6880       430
  84.7760       454
  84.8640       469
  84.9520       481
  85.0400       483
  85.1280       484
  85.2160       498
  85.3040       525
  85.3920       571
  85.4800       583
  85.5680       676
  85.6560       733
  85.7440       785
  85.8320       905
  85.9200       986
  86.0080      1082
  86.0960      1070
  86.1840      1043
  86.2720       904
  86.3600       832
  86.4480       802
  86.5360       703
  86.6240       637
  86.7120       569
  86.8000       527
  86.8880       493
  86.9760       454
  87.0640       448
  87.1520       456
  87.2400       456
  87.3280       403
  87.4160       366
  87.5040       426
  87.5920       406
  87.6800       433
  87.7680       388
  87.8560       402
  87.9440       417
  88.0320       411
  88.1200       415
  88.2080       378
  88.2960       400
  88.3840       387
  88.4720       389
  88.5600       433
  88.6480       394
  88.7360       409
  88.8240       406
  88.9120       401
  89.0000       378
  89.0880       391
  89.1760       418
  89.2640       426
  89.3520       399
  89.4400       394
  89.5280       412
  89.6160       413
  89.7040       414
  89.7920       419
  89.8800       414
  89.9680       371
  90.0560       411
  90.1440       454
  90.2320       443
  90.3200       480
  90.4080       460
  90.4960       468
  90.5840       482
  90.6720       524
  90.7600       529
  90.8480       573
  90.9360       571
  91.0240       619
  91.1120       562
  91.2000       558
  91.2880       504
  91.3760       465
  91.4640       446
  91.5520       408
  91.6400       437
  91.7280       417
  91.8160       405
  91.9040       405
  91.9920       411
  92.0800       429
  92.1680       425
  92.2560       433
  92.3440       411
  92.4320       409
  92.5200       417
  92.6080       409
  92.6960       430
  92.7840       387
  92.8720       400
  92.9600       390
  93.0480       404
  93.1360       388
  93.2240       417
  93.3120       397
  93.4000       389
  93.4880       387
  93.5760       403
  93.6640       388
  93.7520       356
  93.8400       417
  93.9280       400
  94.0160       396
  94.1040       399
  94.1920       404
  94.2800       425
  94.3680       388
  94.4560       418
  94.5440       387
  94.6320       367
  94.7200       368
  94.8080       400
  94.8960       389
  94.9840       371
  95.0720       368
  95.1600       389
  95.2480       421
  95.3360       349
  95.4240       409
  95.5120       388
  95.6000       422
  95.6880       407
  95.7760       375
  95.8640       428
  95.9520       403
  96.0400       417
  96.1280       439
  96.2160       413
  96.3040       342
  96.3920       391
  96.4800       414
  96.5680       393
  96.6560       382
  96.7440       430
  96.8320       393
  96.9200       381
  97.0080       366
  97.0960       399
  97.1840       400
  97.2720       420
  97.3600       383
  97.4480       390
  97.5360       397
  97.6240       399
  97.7120       380
  97.8000       425
  97.8880       381
  97.9760       418
  98.0640       385
  98.1520       381
  98.2400       416
  98.3280       413
  98.4160       427
  98.5040       391
  98.5920       394
  98.6800       413
  98.7680       441
  98.8560       357
  98.9440       369
  99.0320       385
  99.1200       375
  99.2080       408
  99.2960       419
  99.3840       402
  99.4720       411
  99.5600       412
  99.6480       412
  99.7360       410
  99.8240       410
  99.9120       401
 100.0000       421
 100.0880       400
 100.1760       404
 100.2640       404
 100.3520       417
 100.4400       364
 100.5280       421
 100.6160       390
 100.7040       409
 100.7920       390
 100.8800       463
 100.9680       383
 101.0560       379
 101.1440       353
 101.2320       409
 101.3200       389
 101.4080       377
 101.4960       432
 101.5840       409
 101.6720       412
 101.7600       403
 101.8480       384
 101.9360       393
 102.0240       447
 102.1120       452
 102.2000       397
 102.2880       390
 102.3760       403
 102.4640       396
 102.5520       414
 102.6400       393
 102.7280       414
 102.8160       403
 102.9040       384
 102.9920       417
 103.0800       393
 103.1680       449
 103.2560       429
 103.3440       460
 103.4320       384
 103.5200       449
 103.6080       419
 103.6960       405
 103.7840       400
 103.8720       407
 103.9600       397
 104.0480       427
 104.1360       416
 104.2240       431
 104.3120       436
 104.4000       394
 104.4880       403
 104.5760       413
 104.6640       394
 104.7520       410
 104.8400       409
 104.9280       474
 105.0160       411
 105.1040       390
 105.1920       418
 105.2800       394
 105.3680       394
 105.4560       430
 105.5440       386
 105.6320       412
 105.7200       426
 105.8080       410
 105.8960       392
 105.9840       404
 106.0720       416
 106.1600       401
 106.2480       418
 106.3360       410
 106.4240       419
 106.5120       416
 106.6000       442
 106.6880       390
 106.7760       405
 106.8640       416
 106.9520       420
 107.0400       384
 107.1280       429
 107.2160       417
 107.3040       409
 107.3920       396
 107.4800       436
 107.5680       419
 107.6560       390
 107.7440       434
 107.8320       420
 107.9200       452
 108.0080       396
 108.0960       426
 108.1840       402
 108.2720       401
 108.3600       430
 108.4480       429
 108.5360       389
 108.6240       436
 108.7120       420
 108.8000       435
 108.8880       415
 108.9760       436
 109.0640       452
 109.1520       400
 109.2400       447
 109.3280       410
 109.4160       466
 109.5040       419
 109.5920       425
 109.6800       477
 109.7680       419
 109.8560       455
 109.9440       449
 110.0320       476
 110.1200       477
 110.2080       489
 110.2960       492
 110.3840       486
 110.4720       493
 110.5600       490
 110.6480       490
 110.7360       489
 110.8240       495
 110.9120       458
 111.0000       456
 111.0880       454
 111.1760       434
 111.2640       512
 111.3520       475
 111.4400       463
 111.5280       448
 111.6160       476
 111.7040       444
 111.7920       424
 111.8800       396
 111.9680       426
 112.0560       459
 112.1440       420
 112.2320       447
 112.3200       424
 112.4080       418
 112.4960       430
 112.5840       434
 112.6720       395
 112.7600       426
 112.8480       411
 112.9360       424
 113.0240       451
 113.1120       463
 113.2000       420
 113.2880       423
 113.3760       436
 113.4640       426
 113.5520       457
 113.6400       419
 113.7280       427
 113.8160       435
 113.9040       410
 113.9920       395
 114.0800       431
 114.1680       423
 114.2560       405
 114.3440       426
 114.4320       386
 114.5200       415
 114.6080       444
 114.6960       436
 114.7840       421
 114.8720       455
 114.9600       422
 115.0480       441
 115.1360       434
 115.2240       417
 115.3120       413
 115.4000       407
 115.4880       428
 115.5760       407
 115.6640       441
 115.7520       457
 115.8400       426
 115.9280       450
 116.0160       413
 116.1040       445
 116.1920       476
 116.2800       420
 116.3680       417
 116.4560       448
 116.5440       435
 116.6320       405
 116.7200       438
 116.8080       407
 116.8960       383
 116.9840       462
 117.0720       401
 117.1600       461
 117.2480       462
 117.3360       433
 117.4240       429
 117.5120       484
 117.6000       438
 117.6880       434
 117.7760       420
 117.8640       441
 117.9520       450
 118.0400       462
 118.1280       429
 118.2160       438
 118.3040       406
 118.3920       433
 118.4800       428
 118.5680       412
 118.6560       387
 118.7440       380
 118.8320       475
 118.9200       426
 119.0080       403
 119.0960       420
 119.1840       452
 119.2720       410
 119.3600       435
 119.4480       414
 119.5360       428
 119.6240       419
 119.7120       422
 119.8000       404
 119.8880       469
 119.9760       448
 120.0640       453
 120.1520       467
 120.2400       447
 120.3280       468
 120.4160       446
 120.5040       455
 120.5920       443
 120.6800       446
 120.7680       485
 120.8560       441
 120.9440       426
 121.0320       439
 121.1200       478
 121.2080       435
 121.2960       466
 121.3840       414
 121.4720       425
 121.5600       424
 121.6480       432
 121.7360       425
 121.8240       463
 121.9120       467
 122.0000       437