File: old/ueberstruktur/Ueberstruktur (2)/faber/probe1.UXD
; C:\Data\Froehlich\Praktikum\faber\probe1.raw(Diffrac Plus V1.01 file) converted by XCH V1.0
_FILEVERSION=2
_SAMPLE='probe1'
_SITE='II. Physikalisches Institut'
_ATTACHMENTS_CODE=0
_GONIOMETER_RADIUS=200.5
_FIXED_DIVSLIT=2.000000
_FIXED_SAMPLESLIT=1.000000
_FIXED_DETSLIT=0.200000
_MONOCHROMATOR=0
; None
_THIN_FILM='N'
_BETA_FILTER='Y'
_FIXED_ANTISLIT=2.000000
_ANALYZER_CODE=0
; None
_DATEMEASURED='14-Nov-2015 01:56:36'
_WL_UNIT='A'
_WL1=1.540590
_WL2=1.544430
_WL3=1.392230
_WLRATIO=0.520000
_ANODE='Cu'
; (Data for Range number 1)
_DRIVE='COUPLED'
_STEPTIME=2.000000
_STEPSIZE=0.022000
_STEPMODE='C'
_START=12
_THETA=6.000000
_2THETA=12
_KHI=0.000000
_PHI=0.000000
_X=0.000000
_Y=0.000000
_Z=0.000000
_DIVERGENCE=0.000000
_ANTISCATTER=0.000000
_DETECTOR=1
; S.C.
_HV=1000
_GAIN=80
_LLD=0.550000
_ULD=1.310000
_DETECTORSLIT='unkn'
_AUX1=0.000000
_AUX2=0.000000
_AUX3=0.000000
_TIMESTARTED=14
_ROTATION_SPEED=120
_TEMP_RATE=-1.000000
_TEMP_DELAY=-1.000000
_KV=40
_MA=40
_RANGE_WL=1.540590
_3DPLANE=0
_2THETACOUNTS
  12.0000       301
  12.0880       309
  12.1760       329
  12.2640       292
  12.3520       312
  12.4400       297
  12.5280       265
  12.6160       284
  12.7040       310
  12.7920       289
  12.8800       273
  12.9680       302
  13.0560       275
  13.1440       288
  13.2320       288
  13.3200       301
  13.4080       304
  13.4960       277
  13.5840       290
  13.6720       273
  13.7600       283
  13.8480       271
  13.9360       312
  14.0240       295
  14.1120       295
  14.2000       292
  14.2880       259
  14.3760       277
  14.4640       292
  14.5520       254
  14.6400       300
  14.7280       279
  14.8160       251
  14.9040       268
  14.9920       256
  15.0800       257
  15.1680       301
  15.2560       265
  15.3440       293
  15.4320       289
  15.5200       249
  15.6080       268
  15.6960       283
  15.7840       303
  15.8720       270
  15.9600       287
  16.0480       295
  16.1360       296
  16.2240       318
  16.3120       316
  16.4000       315
  16.4880       254
  16.5760       296
  16.6640       325
  16.7520       295
  16.8400       274
  16.9280       305
  17.0160       335
  17.1040       292
  17.1920       312
  17.2800       299
  17.3680       324
  17.4560       278
  17.5440       290
  17.6320       324
  17.7200       308
  17.8080       313
  17.8960       290
  17.9840       299
  18.0720       320
  18.1600       321
  18.2480       334
  18.3360       325
  18.4240       311
  18.5120       320
  18.6000       336
  18.6880       359
  18.7760       314
  18.8640       333
  18.9520       345
  19.0400       345
  19.1280       368
  19.2160       360
  19.3040       342
  19.3920       353
  19.4800       363
  19.5680       307
  19.6560       325
  19.7440       334
  19.8320       322
  19.9200       344
  20.0080       356
  20.0960       351
  20.1840       367
  20.2720       334
  20.3600       346
  20.4480       352
  20.5360       363
  20.6240       369
  20.7120       390
  20.8000       388
  20.8880       376
  20.9760       382
  21.0640       390
  21.1520       372
  21.2400       360
  21.3280       365
  21.4160       389
  21.5040       351
  21.5920       395
  21.6800       392
  21.7680       397
  21.8560       397
  21.9440       388
  22.0320       410
  22.1200       428
  22.2080       374
  22.2960       398
  22.3840       355
  22.4720       407
  22.5600       397
  22.6480       429
  22.7360       426
  22.8240       394
  22.9120       379
  23.0000       425
  23.0880       395
  23.1760       395
  23.2640       450
  23.3520       395
  23.4400       399
  23.5280       437
  23.6160       424
  23.7040       425
  23.7920       401
  23.8800       502
  23.9680       523
  24.0560       548
  24.1440       458
  24.2320       477
  24.3200       446
  24.4080       434
  24.4960       411
  24.5840       393
  24.6720       425
  24.7600       371
  24.8480       438
  24.9360       384
  25.0240       359
  25.1120       388
  25.2000       389
  25.2880       405
  25.3760       408
  25.4640       399
  25.5520       408
  25.6400       399
  25.7280       380
  25.8160       348
  25.9040       393
  25.9920       362
  26.0800       344
  26.1680       422
  26.2560       371
  26.3440       376
  26.4320       367
  26.5200       401
  26.6080       355
  26.6960       389
  26.7840       360
  26.8720       401
  26.9600       381
  27.0480       365
  27.1360       333
  27.2240       372
  27.3120       367
  27.4000       361
  27.4880       366
  27.5760       360
  27.6640       401
  27.7520       390
  27.8400       355
  27.9280       347
  28.0160       374
  28.1040       342
  28.1920       383
  28.2800       369
  28.3680       358
  28.4560       350
  28.5440       346
  28.6320       395
  28.7200       353
  28.8080       344
  28.8960       356
  28.9840       374
  29.0720       360
  29.1600       324
  29.2480       324
  29.3360       345
  29.4240       334
  29.5120       350
  29.6000       334
  29.6880       318
  29.7760       346
  29.8640       340
  29.9520       336
  30.0400       350
  30.1280       333
  30.2160       338
  30.3040       354
  30.3920       309
  30.4800       321
  30.5680       349
  30.6560       313
  30.7440       355
  30.8320       336
  30.9200       327
  31.0080       315
  31.0960       357
  31.1840       340
  31.2720       325
  31.3600       351
  31.4480       332
  31.5360       336
  31.6240       315
  31.7120       332
  31.8000       339
  31.8880       323
  31.9760       309
  32.0640       320
  32.1520       318
  32.2400       318
  32.3280       310
  32.4160       325
  32.5040       318
  32.5920       305
  32.6800       311
  32.7680       343
  32.8560       331
  32.9440       301
  33.0320       323
  33.1200       310
  33.2080       286
  33.2960       314
  33.3840       279
  33.4720       293
  33.5600       308
  33.6480       325
  33.7360       360
  33.8240       353
  33.9120       385
  34.0000       376
  34.0880       437
  34.1760       415
  34.2640       381
  34.3520       333
  34.4400       350
  34.5280       297
  34.6160       307
  34.7040       290
  34.7920       275
  34.8800       313
  34.9680       264
  35.0560       272
  35.1440       275
  35.2320       236
  35.3200       271
  35.4080       295
  35.4960       298
  35.5840       251
  35.6720       272
  35.7600       277
  35.8480       240
  35.9360       243
  36.0240       254
  36.1120       225
  36.2000       238
  36.2880       249
  36.3760       263
  36.4640       275
  36.5520       242
  36.6400       242
  36.7280       239
  36.8160       244
  36.9040       268
  36.9920       281
  37.0800       246
  37.1680       255
  37.2560       269
  37.3440       241
  37.4320       267
  37.5200       236
  37.6080       234
  37.6960       248
  37.7840       244
  37.8720       255
  37.9600       242
  38.0480       262
  38.1360       221
  38.2240       264
  38.3120       255
  38.4000       274
  38.4880       291
  38.5760       232
  38.6640       252
  38.7520       253
  38.8400       246
  38.9280       244
  39.0160       230
  39.1040       236
  39.1920       239
  39.2800       260
  39.3680       235
  39.4560       231
  39.5440       230
  39.6320       250
  39.7200       226
  39.8080       219
  39.8960       226
  39.9840       246
  40.0720       230
  40.1600       241
  40.2480       229
  40.3360       228
  40.4240       219
  40.5120       222
  40.6000       220
  40.6880       251
  40.7760       249
  40.8640       264
  40.9520       222
  41.0400       270
  41.1280       236
  41.2160       273
  41.3040       287
  41.3920       278
  41.4800       324
  41.5680       385
  41.6560       495
  41.7440       623
  41.8320       957
  41.9200      1472
  42.0080      1753
  42.0960      1313
  42.1840       772
  42.2720       467
  42.3600       350
  42.4480       304
  42.5360       286
  42.6240       270
  42.7120       246
  42.8000       254
  42.8880       274
  42.9760       234
  43.0640       232
  43.1520       253
  43.2400       245
  43.3280       240
  43.4160       250
  43.5040       261
  43.5920       252
  43.6800       256
  43.7680       214
  43.8560       241
  43.9440       234
  44.0320       243
  44.1200       250
  44.2080       224
  44.2960       228
  44.3840       239
  44.4720       247
  44.5600       233
  44.6480       251
  44.7360       265
  44.8240       257
  44.9120       239
  45.0000       239
  45.0880       237
  45.1760       240
  45.2640       223
  45.3520       233
  45.4400       232
  45.5280       249
  45.6160       228
  45.7040       241
  45.7920       233
  45.8800       259
  45.9680       226
  46.0560       259
  46.1440       202
  46.2320       227
  46.3200       238
  46.4080       250
  46.4960       248
  46.5840       215
  46.6720       247
  46.7600       229
  46.8480       230
  46.9360       241
  47.0240       255
  47.1120       211
  47.2000       256
  47.2880       244
  47.3760       261
  47.4640       246
  47.5520       239
  47.6400       265
  47.7280       226
  47.8160       259
  47.9040       277
  47.9920       266
  48.0800       293
  48.1680       364
  48.2560       331
  48.3440       411
  48.4320       481
  48.5200       503
  48.6080       696
  48.6960       816
  48.7840       833
  48.8720       776
  48.9600       599
  49.0480       463
  49.1360       378
  49.2240       288
  49.3120       268
  49.4000       284
  49.4880       269
  49.5760       242
  49.6640       236
  49.7520       217
  49.8400       226
  49.9280       246
  50.0160       189
  50.1040       223
  50.1920       212
  50.2800       207
  50.3680       228
  50.4560       222
  50.5440       207
  50.6320       218
  50.7200       215
  50.8080       245
  50.8960       212
  50.9840       205
  51.0720       232
  51.1600       200
  51.2480       217
  51.3360       223
  51.4240       238
  51.5120       211
  51.6000       208
  51.6880       212
  51.7760       223
  51.8640       203
  51.9520       212
  52.0400       229
  52.1280       226
  52.2160       214
  52.3040       222
  52.3920       219
  52.4800       205
  52.5680       225
  52.6560       222
  52.7440       233
  52.8320       227
  52.9200       225
  53.0080       219
  53.0960       241
  53.1840       227
  53.2720       222
  53.3600       268
  53.4480       238
  53.5360       216
  53.6240       227
  53.7120       230
  53.8000       243
  53.8880       214
  53.9760       237
  54.0640       253
  54.1520       286
  54.2400       216
  54.3280       222
  54.4160       246
  54.5040       256
  54.5920       227
  54.6800       253
  54.7680       254
  54.8560       311
  54.9440       282
  55.0320       327
  55.1200       299
  55.2080       295
  55.2960       262
  55.3840       233
  55.4720       240
  55.5600       227
  55.6480       233
  55.7360       258
  55.8240       232
  55.9120       222
  56.0000       215
  56.0880       228
  56.1760       235
  56.2640       233
  56.3520       204
  56.4400       235
  56.5280       240
  56.6160       206
  56.7040       236
  56.7920       219
  56.8800       228
  56.9680       243
  57.0560       238
  57.1440       211
  57.2320       209
  57.3200       237
  57.4080       210
  57.4960       240
  57.5840       220
  57.6720       202
  57.7600       241
  57.8480       244
  57.9360       240
  58.0240       214
  58.1120       214
  58.2000       198
  58.2880       196
  58.3760       208
  58.4640       215
  58.5520       231
  58.6400       222
  58.7280       238
  58.8160       213
  58.9040       197
  58.9920       244
  59.0800       239
  59.1680       216
  59.2560       240
  59.3440       220
  59.4320       244
  59.5200       237
  59.6080       221
  59.6960       242
  59.7840       207
  59.8720       225
  59.9600       219
  60.0480       241
  60.1360       189
  60.2240       238
  60.3120       248
  60.4000       277
  60.4880       265
  60.5760       290
  60.6640       278
  60.7520       310
  60.8400       259
  60.9280       277
  61.0160       261
  61.1040       286
  61.1920       239
  61.2800       234
  61.3680       223
  61.4560       253
  61.5440       255
  61.6320       231
  61.7200       251
  61.8080       225
  61.8960       243
  61.9840       244
  62.0720       237
  62.1600       245
  62.2480       228
  62.3360       234
  62.4240       246
  62.5120       215
  62.6000       201
  62.6880       235
  62.7760       239
  62.8640       239
  62.9520       229
  63.0400       237
  63.1280       229
  63.2160       237
  63.3040       200
  63.3920       235
  63.4800       244
  63.5680       251
  63.6560       215
  63.7440       231
  63.8320       212
  63.9200       222
  64.0080       226
  64.0960       227
  64.1840       220
  64.2720       229
  64.3600       217
  64.4480       226
  64.5360       219
  64.6240       249
  64.7120       230
  64.8000       217
  64.8880       228
  64.9760       252
  65.0640       219
  65.1520       237
  65.2400       235
  65.3280       224
  65.4160       235
  65.5040       222
  65.5920       197
  65.6800       249
  65.7680       228
  65.8560       223
  65.9440       238
  66.0320       236
  66.1200       201
  66.2080       190
  66.2960       228
  66.3840       210
  66.4720       247
  66.5600       248
  66.6480       227
  66.7360       205
  66.8240       226
  66.9120       225
  67.0000       229
  67.0880       209
  67.1760       224
  67.2640       210
  67.3520       215
  67.4400       211
  67.5280       214
  67.6160       217
  67.7040       208
  67.7920       212
  67.8800       245
  67.9680       215
  68.0560       222
  68.1440       250
  68.2320       192
  68.3200       225
  68.4080       203
  68.4960       239
  68.5840       208
  68.6720       213
  68.7600       230
  68.8480       255
  68.9360       240
  69.0240       211
  69.1120       208
  69.2000       224
  69.2880       219
  69.3760       246
  69.4640       215
  69.5520       212
  69.6400       229
  69.7280       222
  69.8160       216
  69.9040       221
  69.9920       219
  70.0800       214
  70.1680       241
  70.2560       237
  70.3440       235
  70.4320       243
  70.5200       250
  70.6080       250
  70.6960       259
  70.7840       270
  70.8720       343
  70.9600       349
  71.0480       385
  71.1360       451
  71.2240       593
  71.3120       630
  71.4000       608
  71.4880       522
  71.5760       488
  71.6640       365
  71.7520       301
  71.8400       267
  71.9280       229
  72.0160       237
  72.1040       269
  72.1920       232
  72.2800       227
  72.3680       234
  72.4560       228
  72.5440       272
  72.6320       241
  72.7200       213
  72.8080       245
  72.8960       240
  72.9840       251
  73.0720       203
  73.1600       225
  73.2480       222
  73.3360       226
  73.4240       226
  73.5120       230
  73.6000       251
  73.6880       208
  73.7760       224
  73.8640       200
  73.9520       221
  74.0400       222
  74.1280       224
  74.2160       225
  74.3040       220
  74.3920       232
  74.4800       240
  74.5680       227
  74.6560       202
  74.7440       216
  74.8320       239
  74.9200       211
  75.0080       198
  75.0960       216
  75.1840       207
  75.2720       207
  75.3600       230
  75.4480       239
  75.5360       246
  75.6240       232
  75.7120       230
  75.8000       230
  75.8880       227
  75.9760       241
  76.0640       238
  76.1520       236
  76.2400       298
  76.3280       263
  76.4160       284
  76.5040       265
  76.5920       230
  76.6800       265
  76.7680       237
  76.8560       237
  76.9440       225
  77.0320       238
  77.1200       225
  77.2080       200
  77.2960       225
  77.3840       227
  77.4720       235
  77.5600       242
  77.6480       229
  77.7360       230
  77.8240       255
  77.9120       208
  78.0000       217
  78.0880       206
  78.1760       234
  78.2640       232
  78.3520       204
  78.4400       235
  78.5280       215
  78.6160       220
  78.7040       211
  78.7920       231
  78.8800       224
  78.9680       217
  79.0560       216
  79.1440       219
  79.2320       225
  79.3200       226
  79.4080       216
  79.4960       225
  79.5840       205
  79.6720       223
  79.7600       209
  79.8480       221
  79.9360       200
  80.0240       198
  80.1120       228
  80.2000       221
  80.2880       210
  80.3760       220
  80.4640       227
  80.5520       241
  80.6400       215
  80.7280       191
  80.8160       240
  80.9040       219
  80.9920       229
  81.0800       244
  81.1680       259
  81.2560       242
  81.3440       231
  81.4320       245
  81.5200       232
  81.6080       227
  81.6960       217
  81.7840       212
  81.8720       240
  81.9600       209
  82.0480       225
  82.1360       206
  82.2240       206
  82.3120       209
  82.4000       219
  82.4880       215
  82.5760       227
  82.6640       223
  82.7520       218
  82.8400       217
  82.9280       196
  83.0160       226
  83.1040       208
  83.1920       181
  83.2800       199
  83.3680       214
  83.4560       210
  83.5440       216
  83.6320       211
  83.7200       224
  83.8080       216
  83.8960       221
  83.9840       215
  84.0720       259
  84.1600       238
  84.2480       209
  84.3360       226
  84.4240       232
  84.5120       264
  84.6000       213
  84.6880       200
  84.7760       232
  84.8640       211
  84.9520       218
  85.0400       254
  85.1280       200
  85.2160       254
  85.3040       232
  85.3920       251
  85.4800       287
  85.5680       317
  85.6560       326
  85.7440       381
  85.8320       405
  85.9200       439
  86.0080       510
  86.0960       595
  86.1840       547
  86.2720       492
  86.3600       454
  86.4480       430
  86.5360       350
  86.6240       321
  86.7120       269
  86.8000       263
  86.8880       280
  86.9760       251
  87.0640       223
  87.1520       228
  87.2400       219
  87.3280       245
  87.4160       243
  87.5040       217
  87.5920       205
  87.6800       223
  87.7680       202
  87.8560       186
  87.9440       206
  88.0320       185
  88.1200       208
  88.2080       193
  88.2960       215
  88.3840       183
  88.4720       202
  88.5600       194
  88.6480       224
  88.7360       213
  88.8240       216
  88.9120       207
  89.0000       219
  89.0880       212
  89.1760       198
  89.2640       210
  89.3520       208
  89.4400       231
  89.5280       217
  89.6160       192
  89.7040       194
  89.7920       213
  89.8800       210
  89.9680       211
  90.0560       207
  90.1440       230
  90.2320       233
  90.3200       242
  90.4080       235
  90.4960       241
  90.5840       244
  90.6720       262
  90.7600       274
  90.8480       251
  90.9360       288
  91.0240       315
  91.1120       313
  91.2000       297
  91.2880       259
  91.3760       246
  91.4640       219
  91.5520       225
  91.6400       253
  91.7280       230
  91.8160       216
  91.9040       210
  91.9920       199
  92.0800       227
  92.1680       221
  92.2560       207
  92.3440       217
  92.4320       204
  92.5200       176
  92.6080       205
  92.6960       208
  92.7840       228
  92.8720       226
  92.9600       200
  93.0480       210
  93.1360       205
  93.2240       194
  93.3120       207
  93.4000       215
  93.4880       202
  93.5760       208
  93.6640       196
  93.7520       210
  93.8400       201
  93.9280       239
  94.0160       182
  94.1040       201
  94.1920       199
  94.2800       209
  94.3680       218
  94.4560       223
  94.5440       221
  94.6320       213
  94.7200       170
  94.8080       217
  94.8960       211
  94.9840       204
  95.0720       213
  95.1600       208
  95.2480       212
  95.3360       212
  95.4240       217
  95.5120       202
  95.6000       242
  95.6880       222
  95.7760       224
  95.8640       246
  95.9520       247
  96.0400       240
  96.1280       233
  96.2160       230
  96.3040       247
  96.3920       210
  96.4800       196
  96.5680       214
  96.6560       228
  96.7440       218
  96.8320       207
  96.9200       247
  97.0080       229
  97.0960       225
  97.1840       214
  97.2720       215
  97.3600       203
  97.4480       238
  97.5360       197
  97.6240       172
  97.7120       212
  97.8000       208
  97.8880       203
  97.9760       188
  98.0640       209
  98.1520       203
  98.2400       211
  98.3280       197
  98.4160       215
  98.5040       219
  98.5920       233
  98.6800       223
  98.7680       217
  98.8560       218
  98.9440       204
  99.0320       216
  99.1200       221
  99.2080       215
  99.2960       237
  99.3840       202
  99.4720       185
  99.5600       213
  99.6480       207
  99.7360       196
  99.8240       212
  99.9120       218
 100.0000       223
 100.0880       220
 100.1760       245
 100.2640       264
 100.3520       209
 100.4400       255
 100.5280       243
 100.6160       236
 100.7040       279
 100.7920       240
 100.8800       268
 100.9680       261
 101.0560       245
 101.1440       269
 101.2320       241
 101.3200       249
 101.4080       206
 101.4960       210
 101.5840       244
 101.6720       218
 101.7600       229
 101.8480       216
 101.9360       220
 102.0240       203
 102.1120       203
 102.2000       239
 102.2880       210
 102.3760       183
 102.4640       254
 102.5520       195
 102.6400       234
 102.7280       208
 102.8160       196
 102.9040       218
 102.9920       246
 103.0800       207
 103.1680       202
 103.2560       214
 103.3440       215
 103.4320       247
 103.5200       212
 103.6080       239
 103.6960       238
 103.7840       223
 103.8720       194
 103.9600       220
 104.0480       189
 104.1360       238
 104.2240       218
 104.3120       210
 104.4000       228
 104.4880       205
 104.5760       226
 104.6640       207
 104.7520       215
 104.8400       205
 104.9280       199
 105.0160       210
 105.1040       218
 105.1920       226
 105.2800       221
 105.3680       193
 105.4560       222
 105.5440       218
 105.6320       203
 105.7200       199
 105.8080       220
 105.8960       220
 105.9840       224
 106.0720       210
 106.1600       213
 106.2480       233
 106.3360       223
 106.4240       212
 106.5120       196
 106.6000       243
 106.6880       191
 106.7760       227
 106.8640       187
 106.9520       214
 107.0400       217
 107.1280       197
 107.2160       212
 107.3040       246
 107.3920       217
 107.4800       227
 107.5680       224
 107.6560       193
 107.7440       237
 107.8320       219
 107.9200       214
 108.0080       239
 108.0960       196
 108.1840       259
 108.2720       218
 108.3600       229
 108.4480       206
 108.5360       203
 108.6240       237
 108.7120       227
 108.8000       242
 108.8880       234
 108.9760       214
 109.0640       245
 109.1520       199
 109.2400       213
 109.3280       199
 109.4160       235
 109.5040       224
 109.5920       241
 109.6800       217
 109.7680       219
 109.8560       214
 109.9440       252
 110.0320       236
 110.1200       245
 110.2080       253
 110.2960       244
 110.3840       243
 110.4720       288
 110.5600       261
 110.6480       267
 110.7360       260
 110.8240       268
 110.9120       250
 111.0000       239
 111.0880       238
 111.1760       249
 111.2640       234
 111.3520       240
 111.4400       243
 111.5280       227
 111.6160       220
 111.7040       198
 111.7920       219
 111.8800       237
 111.9680       227
 112.0560       206
 112.1440       210
 112.2320       243
 112.3200       218
 112.4080       244
 112.4960       248
 112.5840       222
 112.6720       235
 112.7600       235
 112.8480       216
 112.9360       209
 113.0240       233
 113.1120       225
 113.2000       206
 113.2880       250
 113.3760       193
 113.4640       219
 113.5520       217
 113.6400       239
 113.7280       220
 113.8160       199
 113.9040       234
 113.9920       233
 114.0800       216
 114.1680       231
 114.2560       224
 114.3440       229
 114.4320       239
 114.5200       254
 114.6080       231
 114.6960       249
 114.7840       224
 114.8720       227
 114.9600       218
 115.0480       226
 115.1360       250
 115.2240       263
 115.3120       247
 115.4000       253
 115.4880       244
 115.5760       248
 115.6640       263
 115.7520       263
 115.8400       233
 115.9280       273
 116.0160       292
 116.1040       241
 116.1920       260
 116.2800       258
 116.3680       265
 116.4560       236
 116.5440       257
 116.6320       240
 116.7200       249
 116.8080       223
 116.8960       216
 116.9840       232
 117.0720       268
 117.1600       252
 117.2480       235
 117.3360       255
 117.4240       250
 117.5120       220
 117.6000       255
 117.6880       216
 117.7760       236
 117.8640       201
 117.9520       240
 118.0400       230
 118.1280       250
 118.2160       209
 118.3040       238
 118.3920       198
 118.4800       252
 118.5680       250
 118.6560       217
 118.7440       244
 118.8320       225
 118.9200       226
 119.0080       246
 119.0960       243
 119.1840       244
 119.2720       223
 119.3600       222
 119.4480       245
 119.5360       228
 119.6240       215
 119.7120       233
 119.8000       230
 119.8880       252
 119.9760       253
 120.0640       276
 120.1520       244
 120.2400       231
 120.3280       242
 120.4160       248
 120.5040       240
 120.5920       235
 120.6800       246
 120.7680       271
 120.8560       232
 120.9440       271
 121.0320       253
 121.1200       242
 121.2080       239
 121.2960       268
 121.3840       265
 121.4720       267
 121.5600       254
 121.6480       269
 121.7360       273
 121.8240       250
 121.9120       270
 122.0000       246