File: old/ueberstruktur/Ueberstruktur (2)/faber/probe2.UXD
; C:\Data\Froehlich\Praktikum\faber\probe2.raw(Diffrac Plus V1.01 file) converted by XCH V1.0
_FILEVERSION=2
_SAMPLE='probe2'
_SITE='II. Physikalisches Institut'
_ATTACHMENTS_CODE=0
_GONIOMETER_RADIUS=200.5
_FIXED_DIVSLIT=2.000000
_FIXED_SAMPLESLIT=1.000000
_FIXED_DETSLIT=0.200000
_MONOCHROMATOR=0
; None
_THIN_FILM='N'
_BETA_FILTER='Y'
_FIXED_ANTISLIT=2.000000
_ANALYZER_CODE=0
; None
_DATEMEASURED='12-Nov-2015 16:55:34'
_WL_UNIT='A'
_WL1=1.540590
_WL2=1.544430
_WL3=1.392230
_WLRATIO=0.520000
_ANODE='Cu'
; (Data for Range number 1)
_DRIVE='COUPLED'
_STEPTIME=2.000000
_STEPSIZE=0.022000
_STEPMODE='C'
_START=12
_THETA=6.000000
_2THETA=12
_KHI=0.000000
_PHI=0.000000
_X=0.000000
_Y=0.000000
_Z=0.000000
_DIVERGENCE=0.000000
_ANTISCATTER=0.000000
_DETECTOR=1
; S.C.
_HV=1000
_GAIN=80
_LLD=0.550000
_ULD=1.310000
_DETECTORSLIT='unkn'
_AUX1=0.000000
_AUX2=0.000000
_AUX3=0.000000
_TIMESTARTED=13
_ROTATION_SPEED=120
_TEMP_RATE=-1.000000
_TEMP_DELAY=-1.000000
_KV=40
_MA=40
_RANGE_WL=1.540590
_3DPLANE=0
_2THETACOUNTS
  12.0000       220
  12.0880       266
  12.1760       236
  12.2640       254
  12.3520       259
  12.4400       232
  12.5280       238
  12.6160       231
  12.7040       221
  12.7920       264
  12.8800       230
  12.9680       266
  13.0560       245
  13.1440       257
  13.2320       239
  13.3200       255
  13.4080       248
  13.4960       215
  13.5840       236
  13.6720       283
  13.7600       262
  13.8480       247
  13.9360       256
  14.0240       254
  14.1120       275
  14.2000       257
  14.2880       273
  14.3760       274
  14.4640       234
  14.5520       266
  14.6400       246
  14.7280       246
  14.8160       241
  14.9040       246
  14.9920       269
  15.0800       226
  15.1680       281
  15.2560       261
  15.3440       275
  15.4320       271
  15.5200       267
  15.6080       281
  15.6960       277
  15.7840       235
  15.8720       289
  15.9600       282
  16.0480       284
  16.1360       270
  16.2240       285
  16.3120       277
  16.4000       261
  16.4880       306
  16.5760       289
  16.6640       291
  16.7520       251
  16.8400       283
  16.9280       306
  17.0160       297
  17.1040       314
  17.1920       309
  17.2800       292
  17.3680       296
  17.4560       301
  17.5440       298
  17.6320       306
  17.7200       303
  17.8080       286
  17.8960       312
  17.9840       301
  18.0720       309
  18.1600       295
  18.2480       323
  18.3360       319
  18.4240       319
  18.5120       342
  18.6000       344
  18.6880       322
  18.7760       327
  18.8640       313
  18.9520       327
  19.0400       351
  19.1280       343
  19.2160       352
  19.3040       310
  19.3920       340
  19.4800       383
  19.5680       379
  19.6560       350
  19.7440       350
  19.8320       333
  19.9200       364
  20.0080       390
  20.0960       363
  20.1840       354
  20.2720       337
  20.3600       390
  20.4480       353
  20.5360       351
  20.6240       370
  20.7120       356
  20.8000       406
  20.8880       394
  20.9760       346
  21.0640       394
  21.1520       333
  21.2400       380
  21.3280       382
  21.4160       366
  21.5040       389
  21.5920       429
  21.6800       413
  21.7680       412
  21.8560       421
  21.9440       386
  22.0320       413
  22.1200       403
  22.2080       392
  22.2960       420
  22.3840       409
  22.4720       418
  22.5600       389
  22.6480       411
  22.7360       408
  22.8240       410
  22.9120       468
  23.0000       422
  23.0880       429
  23.1760       450
  23.2640       485
  23.3520       487
  23.4400       474
  23.5280       466
  23.6160       511
  23.7040       553
  23.7920       532
  23.8800       531
  23.9680       516
  24.0560       537
  24.1440       463
  24.2320       508
  24.3200       415
  24.4080       416
  24.4960       448
  24.5840       441
  24.6720       443
  24.7600       460
  24.8480       434
  24.9360       433
  25.0240       411
  25.1120       407
  25.2000       413
  25.2880       429
  25.3760       429
  25.4640       447
  25.5520       427
  25.6400       424
  25.7280       423
  25.8160       411
  25.9040       412
  25.9920       405
  26.0800       453
  26.1680       407
  26.2560       438
  26.3440       413
  26.4320       432
  26.5200       438
  26.6080       432
  26.6960       429
  26.7840       413
  26.8720       409
  26.9600       436
  27.0480       418
  27.1360       422
  27.2240       395
  27.3120       413
  27.4000       431
  27.4880       441
  27.5760       438
  27.6640       414
  27.7520       437
  27.8400       440
  27.9280       398
  28.0160       426
  28.1040       380
  28.1920       404
  28.2800       412
  28.3680       444
  28.4560       415
  28.5440       349
  28.6320       413
  28.7200       401
  28.8080       422
  28.8960       403
  28.9840       411
  29.0720       378
  29.1600       378
  29.2480       428
  29.3360       422
  29.4240       442
  29.5120       422
  29.6000       407
  29.6880       443
  29.7760       388
  29.8640       386
  29.9520       421
  30.0400       403
  30.1280       364
  30.2160       367
  30.3040       424
  30.3920       389
  30.4800       425
  30.5680       424
  30.6560       415
  30.7440       377
  30.8320       390
  30.9200       441
  31.0080       410
  31.0960       425
  31.1840       434
  31.2720       389
  31.3600       372
  31.4480       394
  31.5360       396
  31.6240       399
  31.7120       382
  31.8000       418
  31.8880       394
  31.9760       396
  32.0640       391
  32.1520       421
  32.2400       380
  32.3280       418
  32.4160       416
  32.5040       390
  32.5920       377
  32.6800       389
  32.7680       430
  32.8560       437
  32.9440       443
  33.0320       396
  33.1200       442
  33.2080       437
  33.2960       418
  33.3840       419
  33.4720       420
  33.5600       501
  33.6480       485
  33.7360       518
  33.8240       550
  33.9120       531
  34.0000       535
  34.0880       513
  34.1760       535
  34.2640       489
  34.3520       420
  34.4400       464
  34.5280       436
  34.6160       461
  34.7040       451
  34.7920       411
  34.8800       426
  34.9680       411
  35.0560       417
  35.1440       460
  35.2320       387
  35.3200       430
  35.4080       422
  35.4960       410
  35.5840       387
  35.6720       399
  35.7600       443
  35.8480       408
  35.9360       371
  36.0240       366
  36.1120       397
  36.2000       393
  36.2880       417
  36.3760       414
  36.4640       377
  36.5520       383
  36.6400       394
  36.7280       395
  36.8160       402
  36.9040       413
  36.9920       373
  37.0800       379
  37.1680       427
  37.2560       364
  37.3440       397
  37.4320       431
  37.5200       477
  37.6080       468
  37.6960       423
  37.7840       402
  37.8720       429
  37.9600       420
  38.0480       486
  38.1360       502
  38.2240       518
  38.3120       457
  38.4000       480
  38.4880       415
  38.5760       409
  38.6640       426
  38.7520       366
  38.8400       375
  38.9280       390
  39.0160       398
  39.1040       417
  39.1920       389
  39.2800       399
  39.3680       454
  39.4560       337
  39.5440       384
  39.6320       390
  39.7200       428
  39.8080       410
  39.8960       437
  39.9840       425
  40.0720       417
  40.1600       443
  40.2480       417
  40.3360       445
  40.4240       421
  40.5120       455
  40.6000       446
  40.6880       470
  40.7760       473
  40.8640       499
  40.9520       522
  41.0400       535
  41.1280       600
  41.2160       645
  41.3040       726
  41.3920       897
  41.4800      1186
  41.5680      1651
  41.6560      2701
  41.7440      3693
  41.8320      3991
  41.9200      3079
  42.0080      1921
  42.0960      1192
  42.1840       815
  42.2720       627
  42.3600       523
  42.4480       525
  42.5360       467
  42.6240       452
  42.7120       425
  42.8000       444
  42.8880       439
  42.9760       387
  43.0640       456
  43.1520       453
  43.2400       426
  43.3280       432
  43.4160       405
  43.5040       437
  43.5920       434
  43.6800       457
  43.7680       449
  43.8560       427
  43.9440       416
  44.0320       423
  44.1200       439
  44.2080       429
  44.2960       462
  44.3840       459
  44.4720       442
  44.5600       431
  44.6480       415
  44.7360       406
  44.8240       408
  44.9120       385
  45.0000       417
  45.0880       409
  45.1760       429
  45.2640       411
  45.3520       419
  45.4400       386
  45.5280       372
  45.6160       380
  45.7040       364
  45.7920       417
  45.8800       391
  45.9680       387
  46.0560       396
  46.1440       396
  46.2320       434
  46.3200       403
  46.4080       410
  46.4960       416
  46.5840       384
  46.6720       418
  46.7600       437
  46.8480       409
  46.9360       409
  47.0240       449
  47.1120       487
  47.2000       464
  47.2880       478
  47.3760       462
  47.4640       477
  47.5520       482
  47.6400       519
  47.7280       517
  47.8160       549
  47.9040       608
  47.9920       716
  48.0800       781
  48.1680       988
  48.2560      1171
  48.3440      1479
  48.4320      1737
  48.5200      2180
  48.6080      2379
  48.6960      2267
  48.7840      1890
  48.8720      1400
  48.9600       953
  49.0480       768
  49.1360       674
  49.2240       583
  49.3120       492
  49.4000       510
  49.4880       499
  49.5760       460
  49.6640       436
  49.7520       402
  49.8400       440
  49.9280       377
  50.0160       429
  50.1040       415
  50.1920       386
  50.2800       344
  50.3680       402
  50.4560       386
  50.5440       392
  50.6320       367
  50.7200       421
  50.8080       384
  50.8960       350
  50.9840       432
  51.0720       424
  51.1600       403
  51.2480       364
  51.3360       418
  51.4240       385
  51.5120       396
  51.6000       426
  51.6880       374
  51.7760       420
  51.8640       379
  51.9520       435
  52.0400       438
  52.1280       412
  52.2160       416
  52.3040       424
  52.3920       371
  52.4800       397
  52.5680       415
  52.6560       409
  52.7440       428
  52.8320       438
  52.9200       362
  53.0080       433
  53.0960       393
  53.1840       416
  53.2720       388
  53.3600       386
  53.4480       424
  53.5360       421
  53.6240       422
  53.7120       419
  53.8000       400
  53.8880       409
  53.9760       429
  54.0640       400
  54.1520       431
  54.2400       419
  54.3280       449
  54.4160       432
  54.5040       474
  54.5920       526
  54.6800       571
  54.7680       541
  54.8560       542
  54.9440       539
  55.0320       498
  55.1200       503
  55.2080       528
  55.2960       420
  55.3840       463
  55.4720       430
  55.5600       393
  55.6480       438
  55.7360       412
  55.8240       411
  55.9120       384
  56.0000       424
  56.0880       438
  56.1760       392
  56.2640       418
  56.3520       410
  56.4400       418
  56.5280       411
  56.6160       412
  56.7040       398
  56.7920       407
  56.8800       383
  56.9680       413
  57.0560       406
  57.1440       391
  57.2320       390
  57.3200       439
  57.4080       397
  57.4960       439
  57.5840       397
  57.6720       387
  57.7600       425
  57.8480       413
  57.9360       399
  58.0240       416
  58.1120       399
  58.2000       428
  58.2880       427
  58.3760       410
  58.4640       412
  58.5520       397
  58.6400       402
  58.7280       396
  58.8160       401
  58.9040       390
  58.9920       383
  59.0800       416
  59.1680       429
  59.2560       430
  59.3440       368
  59.4320       435
  59.5200       392
  59.6080       392
  59.6960       432
  59.7840       414
  59.8720       417
  59.9600       417
  60.0480       420
  60.1360       455
  60.2240       479
  60.3120       451
  60.4000       486
  60.4880       493
  60.5760       492
  60.6640       511
  60.7520       516
  60.8400       458
  60.9280       437
  61.0160       450
  61.1040       428
  61.1920       455
  61.2800       447
  61.3680       411
  61.4560       373
  61.5440       413
  61.6320       454
  61.7200       403
  61.8080       418
  61.8960       436
  61.9840       409
  62.0720       432
  62.1600       439
  62.2480       418
  62.3360       431
  62.4240       398
  62.5120       418
  62.6000       417
  62.6880       378
  62.7760       404
  62.8640       408
  62.9520       477
  63.0400       407
  63.1280       404
  63.2160       422
  63.3040       395
  63.3920       400
  63.4800       389
  63.5680       431
  63.6560       441
  63.7440       437
  63.8320       379
  63.9200       407
  64.0080       386
  64.0960       404
  64.1840       444
  64.2720       413
  64.3600       444
  64.4480       430
  64.5360       420
  64.6240       441
  64.7120       419
  64.8000       422
  64.8880       438
  64.9760       411
  65.0640       407
  65.1520       432
  65.2400       411
  65.3280       406
  65.4160       364
  65.5040       361
  65.5920       393
  65.6800       402
  65.7680       405
  65.8560       397
  65.9440       395
  66.0320       398
  66.1200       402
  66.2080       382
  66.2960       429
  66.3840       441
  66.4720       443
  66.5600       417
  66.6480       402
  66.7360       435
  66.8240       412
  66.9120       411
  67.0000       402
  67.0880       403
  67.1760       414
  67.2640       395
  67.3520       412
  67.4400       447
  67.5280       454
  67.6160       407
  67.7040       375
  67.7920       425
  67.8800       393
  67.9680       386
  68.0560       392
  68.1440       419
  68.2320       388
  68.3200       402
  68.4080       404
  68.4960       444
  68.5840       417
  68.6720       416
  68.7600       423
  68.8480       437
  68.9360       421
  69.0240       439
  69.1120       405
  69.2000       426
  69.2880       425
  69.3760       408
  69.4640       378
  69.5520       436
  69.6400       467
  69.7280       429
  69.8160       439
  69.9040       466
  69.9920       429
  70.0800       429
  70.1680       448
  70.2560       433
  70.3440       453
  70.4320       465
  70.5200       513
  70.6080       536
  70.6960       568
  70.7840       719
  70.8720       725
  70.9600       890
  71.0480      1061
  71.1360      1235
  71.2240      1284
  71.3120      1266
  71.4000      1089
  71.4880       920
  71.5760       812
  71.6640       640
  71.7520       496
  71.8400       503
  71.9280       455
  72.0160       455
  72.1040       457
  72.1920       454
  72.2800       427
  72.3680       458
  72.4560       422
  72.5440       430
  72.6320       446
  72.7200       409
  72.8080       419
  72.8960       413
  72.9840       385
  73.0720       417
  73.1600       422
  73.2480       394
  73.3360       422
  73.4240       436
  73.5120       375
  73.6000       373
  73.6880       431
  73.7760       421
  73.8640       420
  73.9520       413
  74.0400       439
  74.1280       420
  74.2160       411
  74.3040       415
  74.3920       414
  74.4800       366
  74.5680       417
  74.6560       425
  74.7440       421
  74.8320       414
  74.9200       424
  75.0080       402
  75.0960       410
  75.1840       408
  75.2720       401
  75.3600       425
  75.4480       412
  75.5360       439
  75.6240       413
  75.7120       429
  75.8000       456
  75.8880       424
  75.9760       483
  76.0640       475
  76.1520       508
  76.2400       491
  76.3280       494
  76.4160       486
  76.5040       499
  76.5920       432
  76.6800       439
  76.7680       474
  76.8560       443
  76.9440       463
  77.0320       428
  77.1200       429
  77.2080       457
  77.2960       409
  77.3840       442
  77.4720       436
  77.5600       431
  77.6480       424
  77.7360       400
  77.8240       427
  77.9120       407
  78.0000       410
  78.0880       422
  78.1760       414
  78.2640       450
  78.3520       417
  78.4400       407
  78.5280       408
  78.6160       423
  78.7040       400
  78.7920       408
  78.8800       417
  78.9680       409
  79.0560       441
  79.1440       441
  79.2320       453
  79.3200       425
  79.4080       380
  79.4960       381
  79.5840       432
  79.6720       433
  79.7600       416
  79.8480       426
  79.9360       420
  80.0240       427
  80.1120       431
  80.2000       404
  80.2880       451
  80.3760       457
  80.4640       437
  80.5520       424
  80.6400       395
  80.7280       430
  80.8160       462
  80.9040       430
  80.9920       445
  81.0800       482
  81.1680       482
  81.2560       448
  81.3440       440
  81.4320       451
  81.5200       462
  81.6080       415
  81.6960       454
  81.7840       431
  81.8720       404
  81.9600       437
  82.0480       400
  82.1360       421
  82.2240       405
  82.3120       443
  82.4000       413
  82.4880       442
  82.5760       408
  82.6640       426
  82.7520       425
  82.8400       414
  82.9280       443
  83.0160       410
  83.1040       406
  83.1920       388
  83.2800       421
  83.3680       429
  83.4560       447
  83.5440       449
  83.6320       405
  83.7200       409
  83.8080       425
  83.8960       471
  83.9840       458
  84.0720       388
  84.1600       452
  84.2480       440
  84.3360       457
  84.4240       416
  84.5120       438
  84.6000       439
  84.6880       442
  84.7760       454
  84.8640       470
  84.9520       451
  85.0400       508
  85.1280       479
  85.2160       526
  85.3040       555
  85.3920       557
  85.4800       596
  85.5680       731
  85.6560       728
  85.7440       854
  85.8320       976
  85.9200      1002
  86.0080      1006
  86.0960      1100
  86.1840      1089
  86.2720      1025
  86.3600       866
  86.4480       790
  86.5360       726
  86.6240       640
  86.7120       576
  86.8000       517
  86.8880       495
  86.9760       478
  87.0640       455
  87.1520       463
  87.2400       476
  87.3280       451
  87.4160       486
  87.5040       421
  87.5920       461
  87.6800       456
  87.7680       441
  87.8560       428
  87.9440       424
  88.0320       414
  88.1200       414
  88.2080       396
  88.2960       392
  88.3840       452
  88.4720       438
  88.5600       451
  88.6480       437
  88.7360       396
  88.8240       412
  88.9120       376
  89.0000       383
  89.0880       437
  89.1760       451
  89.2640       415
  89.3520       377
  89.4400       446
  89.5280       436
  89.6160       405
  89.7040       407
  89.7920       405
  89.8800       388
  89.9680       427
  90.0560       409
  90.1440       412
  90.2320       441
  90.3200       428
  90.4080       436
  90.4960       482
  90.5840       473
  90.6720       501
  90.7600       576
  90.8480       607
  90.9360       571
  91.0240       566
  91.1120       527
  91.2000       555
  91.2880       542
  91.3760       506
  91.4640       432
  91.5520       451
  91.6400       421
  91.7280       437
  91.8160       458
  91.9040       434
  91.9920       370
  92.0800       439
  92.1680       404
  92.2560       406
  92.3440       415
  92.4320       428
  92.5200       393
  92.6080       378
  92.6960       420
  92.7840       382
  92.8720       402
  92.9600       394
  93.0480       395
  93.1360       421
  93.2240       427
  93.3120       393
  93.4000       419
  93.4880       397
  93.5760       369
  93.6640       406
  93.7520       403
  93.8400       393
  93.9280       398
  94.0160       395
  94.1040       433
  94.1920       422
  94.2800       409
  94.3680       403
  94.4560       413
  94.5440       424
  94.6320       442
  94.7200       421
  94.8080       434
  94.8960       403
  94.9840       402
  95.0720       370
  95.1600       427
  95.2480       408
  95.3360       398
  95.4240       433
  95.5120       404
  95.6000       468
  95.6880       444
  95.7760       446
  95.8640       468
  95.9520       475
  96.0400       444
  96.1280       451
  96.2160       449
  96.3040       442
  96.3920       417
  96.4800       396
  96.5680       426
  96.6560       417
  96.7440       408
  96.8320       433
  96.9200       398
  97.0080       406
  97.0960       396
  97.1840       408
  97.2720       403
  97.3600       429
  97.4480       418
  97.5360       393
  97.6240       408
  97.7120       407
  97.8000       414
  97.8880       391
  97.9760       415
  98.0640       423
  98.1520       408
  98.2400       414
  98.3280       392
  98.4160       391
  98.5040       433
  98.5920       418
  98.6800       430
  98.7680       419
  98.8560       405
  98.9440       428
  99.0320       418
  99.1200       395
  99.2080       409
  99.2960       398
  99.3840       447
  99.4720       446
  99.5600       409
  99.6480       412
  99.7360       412
  99.8240       407
  99.9120       422
 100.0000       376
 100.0880       442
 100.1760       411
 100.2640       441
 100.3520       448
 100.4400       492
 100.5280       457
 100.6160       498
 100.7040       477
 100.7920       470
 100.8800       486
 100.9680       484
 101.0560       483
 101.1440       463
 101.2320       421
 101.3200       456
 101.4080       403
 101.4960       447
 101.5840       430
 101.6720       418
 101.7600       440
 101.8480       387
 101.9360       410
 102.0240       443
 102.1120       428
 102.2000       423
 102.2880       427
 102.3760       414
 102.4640       413
 102.5520       406
 102.6400       442
 102.7280       383
 102.8160       395
 102.9040       408
 102.9920       448
 103.0800       421
 103.1680       434
 103.2560       380
 103.3440       389
 103.4320       395
 103.5200       451
 103.6080       440
 103.6960       415
 103.7840       406
 103.8720       428
 103.9600       411
 104.0480       386
 104.1360       384
 104.2240       440
 104.3120       439
 104.4000       402
 104.4880       425
 104.5760       409
 104.6640       398
 104.7520       438
 104.8400       404
 104.9280       429
 105.0160       401
 105.1040       426
 105.1920       408
 105.2800       422
 105.3680       459
 105.4560       385
 105.5440       436
 105.6320       411
 105.7200       428
 105.8080       418
 105.8960       400
 105.9840       380
 106.0720       401
 106.1600       417
 106.2480       414
 106.3360       426
 106.4240       397
 106.5120       389
 106.6000       415
 106.6880       425
 106.7760       434
 106.8640       424
 106.9520       390
 107.0400       411
 107.1280       424
 107.2160       410
 107.3040       401
 107.3920       435
 107.4800       417
 107.5680       409
 107.6560       401
 107.7440       425
 107.8320       387
 107.9200       379
 108.0080       400
 108.0960       447
 108.1840       414
 108.2720       411
 108.3600       433
 108.4480       432
 108.5360       452
 108.6240       432
 108.7120       438
 108.8000       424
 108.8880       450
 108.9760       435
 109.0640       450
 109.1520       400
 109.2400       435
 109.3280       426
 109.4160       437
 109.5040       440
 109.5920       400
 109.6800       450
 109.7680       478
 109.8560       479
 109.9440       488
 110.0320       459
 110.1200       412
 110.2080       478
 110.2960       468
 110.3840       497
 110.4720       490
 110.5600       500
 110.6480       478
 110.7360       495
 110.8240       500
 110.9120       496
 111.0000       493
 111.0880       502
 111.1760       503
 111.2640       450
 111.3520       433
 111.4400       469
 111.5280       474
 111.6160       464
 111.7040       448
 111.7920       437
 111.8800       439
 111.9680       454
 112.0560       423
 112.1440       463
 112.2320       445
 112.3200       465
 112.4080       454
 112.4960       406
 112.5840       416
 112.6720       411
 112.7600       432
 112.8480       441
 112.9360       410
 113.0240       378
 113.1120       429
 113.2000       409
 113.2880       413
 113.3760       403
 113.4640       428
 113.5520       422
 113.6400       443
 113.7280       402
 113.8160       448
 113.9040       413
 113.9920       425
 114.0800       439
 114.1680       444
 114.2560       459
 114.3440       418
 114.4320       422
 114.5200       412
 114.6080       436
 114.6960       422
 114.7840       408
 114.8720       393
 114.9600       423
 115.0480       453
 115.1360       474
 115.2240       480
 115.3120       448
 115.4000       434
 115.4880       465
 115.5760       454
 115.6640       431
 115.7520       469
 115.8400       465
 115.9280       488
 116.0160       459
 116.1040       492
 116.1920       456
 116.2800       473
 116.3680       492
 116.4560       494
 116.5440       452
 116.6320       480
 116.7200       426
 116.8080       472
 116.8960       485
 116.9840       418
 117.0720       395
 117.1600       431
 117.2480       468
 117.3360       443
 117.4240       448
 117.5120       434
 117.6000       433
 117.6880       446
 117.7760       498
 117.8640       464
 117.9520       396
 118.0400       434
 118.1280       466
 118.2160       426
 118.3040       435
 118.3920       446
 118.4800       410
 118.5680       459
 118.6560       452
 118.7440       436
 118.8320       462
 118.9200       449
 119.0080       396
 119.0960       436
 119.1840       430
 119.2720       439
 119.3600       411
 119.4480       426
 119.5360       439
 119.6240       430
 119.7120       433
 119.8000       424
 119.8880       440
 119.9760       446
 120.0640       435
 120.1520       408
 120.2400       441
 120.3280       461
 120.4160       409
 120.5040       434
 120.5920       417
 120.6800       447
 120.7680       440
 120.8560       480
 120.9440       473
 121.0320       438
 121.1200       453
 121.2080       441
 121.2960       495
 121.3840       404
 121.4720       487
 121.5600       471
 121.6480       450
 121.7360       500
 121.8240       472
 121.9120       511
 122.0000       485